submission_id,QUD,RT,age,choice_options_1,choice_options_2,choice_options_3,column_number,comments,condition,correct,education,endTime,expected,experiment_id,gender,languages,prolific_id,question,response,row_number,sentence_chunk_1,sentence_chunk_2,sentence_chunk_3,sentence_chunk_4,sitation_number,situation,startDate,startTime,stimulus,timeSpent,trial_name,trial_number
421,,48673,52,all|most|some|none,all|most|some|none,right|wrong,5,,high,placeholder,Graduated High School,1575197698101,placeholder,10,female,English,5afc9c20fa4ce800018e5166,Describe these results of <strong>Green Valley</strong> so as to make it appear as if there is a <strong>high</strong> success rate without lying.,some|all|right,12|12|0|0|0,In this exam,of the students got,of the questions,.,4,"%{""instances"" => [%{""n_col"" => 12, ""rows"" => [12, 12, 0, 0, 0]}], ""number"" => 4, ""sequence"" => [""ADDDD"", ""AADDD"", ""ABDDD"", ""ACDDD""], ""truth_table"" => []}",Sun Dec 01 2019 10:37:45 GMT+0000 (Greenwich Mean Time),1575196665450,1|1|1|1|1|1|1|1|1|1|1|1|1|1|1|1|1|1|1|1|1|1|1|1|0|0|0|0|0|0|0|0|0|0|0|0|0|0|0|0|0|0|0|0|0|0|0|0|0|0|0|0|0|0|0|0|0|0|0|0,17.21085,training_trials,1
421,,38674,52,all|most|some|none,all|most|some|none,right|wrong,5,,low,placeholder,Graduated High School,1575197698101,placeholder,10,female,English,5afc9c20fa4ce800018e5166,Describe these results of <strong>Riverside</strong> so as to make it appear as if there is a <strong>low</strong> success rate without lying.,most|none|right,12|12|0|0|0,In this exam,of the students got,of the questions,.,4,"%{""instances"" => [%{""n_col"" => 12, ""rows"" => [12, 12, 0, 0, 0]}], ""number"" => 4, ""sequence"" => [""ADDDD"", ""AADDD"", ""ABDDD"", ""ACDDD""], ""truth_table"" => []}",Sun Dec 01 2019 10:37:45 GMT+0000 (Greenwich Mean Time),1575196665450,1|1|1|1|1|1|1|1|1|1|1|1|1|1|1|1|1|1|1|1|1|1|1|1|0|0|0|0|0|0|0|0|0|0|0|0|0|0|0|0|0|0|0|0|0|0|0|0|0|0|0|0|0|0|0|0|0|0|0|0,17.21085,training_trials,2
421,,35875,52,all|most|some|none,all|most|some|none,right|wrong,5,,high,placeholder,Graduated High School,1575197698101,placeholder,10,female,English,5afc9c20fa4ce800018e5166,Describe these results of <strong>Green Valley</strong> so as to make it appear as if there is a <strong>high</strong> success rate without lying.,all|some|right,9|9|3|3|3,In this exam,of the students got,of the questions,.,12,"%{""instances"" => [%{""n_col"" => 12, ""rows"" => [9, 9, 3, 3, 3]}], ""number"" => 12, ""sequence"" => [""BCCCC"", ""BBCCC""], ""truth_table"" => []}",Sun Dec 01 2019 10:37:45 GMT+0000 (Greenwich Mean Time),1575196665450,1|1|1|1|1|1|1|1|1|0|0|0|1|1|1|1|1|1|1|1|1|0|0|0|1|1|1|0|0|0|0|0|0|0|0|0|1|1|1|0|0|0|0|0|0|0|0|0|1|1|1|0|0|0|0|0|0|0|0|0,17.21085,training_trials,3
421,,27844,52,all|most|some|none,all|most|some|none,right|wrong,5,,low,placeholder,Graduated High School,1575197698101,placeholder,10,female,English,5afc9c20fa4ce800018e5166,Describe these results of <strong>Riverside</strong> so as to make it appear as if there is a <strong>low</strong> success rate without lying.,most|most|wrong,9|9|3|3|3,In this exam,of the students got,of the questions,.,12,"%{""instances"" => [%{""n_col"" => 12, ""rows"" => [9, 9, 3, 3, 3]}], ""number"" => 12, ""sequence"" => [""BCCCC"", ""BBCCC""], ""truth_table"" => []}",Sun Dec 01 2019 10:37:45 GMT+0000 (Greenwich Mean Time),1575196665450,1|1|1|1|1|1|1|1|1|0|0|0|1|1|1|1|1|1|1|1|1|0|0|0|1|1|1|0|0|0|0|0|0|0|0|0|1|1|1|0|0|0|0|0|0|0|0|0|1|1|1|0|0|0|0|0|0|0|0|0,17.21085,training_trials,4
421,,57903,52,all|most|some|none,all|most|some|none,right|wrong,5,,low,placeholder,Graduated High School,1575197698101,placeholder,10,female,English,5afc9c20fa4ce800018e5166,Describe these results of <strong>Riverside</strong> so as to make it appear as if there is a <strong>low</strong> success rate without lying.,all|most|wrong,3|3|0|0|0,In this exam,of the students got,of the questions,.,2,"%{""instances"" => [%{""n_col"" => 12, ""rows"" => [3, 3, 0, 0, 0]}], ""number"" => 2, ""sequence"" => [""CDDDD"", ""CCDDD""], ""truth_table"" => []}",Sun Dec 01 2019 10:37:45 GMT+0000 (Greenwich Mean Time),1575196665450,1|1|1|0|0|0|0|0|0|0|0|0|1|1|1|0|0|0|0|0|0|0|0|0|0|0|0|0|0|0|0|0|0|0|0|0|0|0|0|0|0|0|0|0|0|0|0|0|0|0|0|0|0|0|0|0|0|0|0|0,17.21085,main_trials,1
421,,97283,52,all|most|some|none,all|most|some|none,right|wrong,5,,low,placeholder,Graduated High School,1575197698101,placeholder,10,female,English,5afc9c20fa4ce800018e5166,Describe these results of <strong>Riverside</strong> so as to make it appear as if there is a <strong>low</strong> success rate without lying.,some|some|wrong,12|12|9|9|9,In this exam,of the students got,of the questions,.,18,"%{""instances"" => [%{""n_col"" => 12, ""rows"" => '\f\f\t\t\t'}], ""number"" => 18, ""sequence"" => [""ABBBB"", ""AABBB""], ""truth_table"" => []}",Sun Dec 01 2019 10:37:45 GMT+0000 (Greenwich Mean Time),1575196665450,1|1|1|1|1|1|1|1|1|1|1|1|1|1|1|1|1|1|1|1|1|1|1|1|1|1|1|1|1|1|1|1|1|0|0|0|1|1|1|1|1|1|1|1|1|0|0|0|1|1|1|1|1|1|1|1|1|0|0|0,17.21085,main_trials,2
421,,18150,52,all|most|some|none,all|most|some|none,right|wrong,5,,high,placeholder,Graduated High School,1575197698101,placeholder,10,female,English,5afc9c20fa4ce800018e5166,Describe these results of <strong>Green Valley</strong> so as to make it appear as if there is a <strong>high</strong> success rate without lying.,most|all|right,12|12|12|0|0,In this exam,of the students got,of the questions,.,9,"%{""instances"" => [%{""n_col"" => 12, ""rows"" => [12, 12, 12, 0, 0]}], ""number"" => 9, ""sequence"" => [""AAADD"", ""AAAAD"", ""AAABD"", ""AAACD""], ""truth_table"" => []}",Sun Dec 01 2019 10:37:45 GMT+0000 (Greenwich Mean Time),1575196665450,1|1|1|1|1|1|1|1|1|1|1|1|1|1|1|1|1|1|1|1|1|1|1|1|1|1|1|1|1|1|1|1|1|1|1|1|0|0|0|0|0|0|0|0|0|0|0|0|0|0|0|0|0|0|0|0|0|0|0|0,17.21085,main_trials,3
421,,54986,52,all|most|some|none,all|most|some|none,right|wrong,5,,high,placeholder,Graduated High School,1575197698101,placeholder,10,female,English,5afc9c20fa4ce800018e5166,Describe these results of <strong>Green Valley</strong> so as to make it appear as if there is a <strong>high</strong> success rate without lying.,most|most|right,9|9|9|3|3,In this exam,of the students got,of the questions,.,14,"%{""instances"" => [%{""n_col"" => 12, ""rows"" => [9, 9, 9, 3, 3]}], ""number"" => 14, ""sequence"" => [""BBBCC"", ""BBBBC""], ""truth_table"" => []}",Sun Dec 01 2019 10:37:45 GMT+0000 (Greenwich Mean Time),1575196665450,1|1|1|1|1|1|1|1|1|0|0|0|1|1|1|1|1|1|1|1|1|0|0|0|1|1|1|1|1|1|1|1|1|0|0|0|1|1|1|0|0|0|0|0|0|0|0|0|1|1|1|0|0|0|0|0|0|0|0|0,17.21085,main_trials,4
421,,18124,52,all|most|some|none,all|most|some|none,right|wrong,5,,high,placeholder,Graduated High School,1575197698101,placeholder,10,female,English,5afc9c20fa4ce800018e5166,Describe these results of <strong>Green Valley</strong> so as to make it appear as if there is a <strong>high</strong> success rate without lying.,all|some|right,3|3|3|3|3,In this exam,of the students got,of the questions,.,11,"%{""instances"" => [%{""n_col"" => 12, ""rows"" => [3, 3, 3, 3, 3]}], ""number"" => 11, ""sequence"" => [""CCCCC""], ""truth_table"" => []}",Sun Dec 01 2019 10:37:45 GMT+0000 (Greenwich Mean Time),1575196665450,1|1|1|0|0|0|0|0|0|0|0|0|1|1|1|0|0|0|0|0|0|0|0|0|1|1|1|0|0|0|0|0|0|0|0|0|1|1|1|0|0|0|0|0|0|0|0|0|1|1|1|0|0|0|0|0|0|0|0|0,17.21085,main_trials,5
421,,20787,52,all|most|some|none,all|most|some|none,right|wrong,5,,low,placeholder,Graduated High School,1575197698101,placeholder,10,female,English,5afc9c20fa4ce800018e5166,Describe these results of <strong>Riverside</strong> so as to make it appear as if there is a <strong>low</strong> success rate without lying.,most|none|right,12|12|0|0|0,In this exam,of the students got,of the questions,.,4,"%{""instances"" => [%{""n_col"" => 12, ""rows"" => [12, 12, 0, 0, 0]}], ""number"" => 4, ""sequence"" => [""ADDDD"", ""AADDD"", ""ABDDD"", ""ACDDD""], ""truth_table"" => []}",Sun Dec 01 2019 10:37:45 GMT+0000 (Greenwich Mean Time),1575196665450,1|1|1|1|1|1|1|1|1|1|1|1|1|1|1|1|1|1|1|1|1|1|1|1|0|0|0|0|0|0|0|0|0|0|0|0|0|0|0|0|0|0|0|0|0|0|0|0|0|0|0|0|0|0|0|0|0|0|0|0,17.21085,main_trials,6
421,,48846,52,all|most|some|none,all|most|some|none,right|wrong,5,,high,placeholder,Graduated High School,1575197698101,placeholder,10,female,English,5afc9c20fa4ce800018e5166,Describe these results of <strong>Green Valley</strong> so as to make it appear as if there is a <strong>high</strong> success rate without lying.,none|all|right,0|0|0|0|0,In this exam,of the students got,of the questions,.,10,"%{""instances"" => [%{""n_col"" => 12, ""rows"" => [0, 0, 0, 0, 0]}], ""number"" => 10, ""sequence"" => [""DDDDD""], ""truth_table"" => []}",Sun Dec 01 2019 10:37:45 GMT+0000 (Greenwich Mean Time),1575196665450,0|0|0|0|0|0|0|0|0|0|0|0|0|0|0|0|0|0|0|0|0|0|0|0|0|0|0|0|0|0|0|0|0|0|0|0|0|0|0|0|0|0|0|0|0|0|0|0|0|0|0|0|0|0|0|0|0|0|0|0,17.21085,main_trials,7
421,,25368,52,all|most|some|none,all|most|some|none,right|wrong,5,,high,placeholder,Graduated High School,1575197698101,placeholder,10,female,English,5afc9c20fa4ce800018e5166,Describe these results of <strong>Green Valley</strong> so as to make it appear as if there is a <strong>high</strong> success rate without lying.,most|some|right,3|3|3|0|0,In this exam,of the students got,of the questions,.,5,"%{""instances"" => [%{""n_col"" => 12, ""rows"" => [3, 3, 3, 0, 0]}], ""number"" => 5, ""sequence"" => [""CCCDD"", ""CCCCD""], ""truth_table"" => []}",Sun Dec 01 2019 10:37:45 GMT+0000 (Greenwich Mean Time),1575196665450,1|1|1|0|0|0|0|0|0|0|0|0|1|1|1|0|0|0|0|0|0|0|0|0|1|1|1|0|0|0|0|0|0|0|0|0|0|0|0|0|0|0|0|0|0|0|0|0|0|0|0|0|0|0|0|0|0|0|0|0,17.21085,main_trials,8
421,,58997,52,all|most|some|none,all|most|some|none,right|wrong,5,,low,placeholder,Graduated High School,1575197698101,placeholder,10,female,English,5afc9c20fa4ce800018e5166,Describe these results of <strong>Riverside</strong> so as to make it appear as if there is a <strong>low</strong> success rate without lying.,some|some|right,12|12|12|9|9,In this exam,of the students got,of the questions,.,19,"%{""instances"" => [%{""n_col"" => 12, ""rows"" => '\f\f\f\t\t'}], ""number"" => 19, ""sequence"" => [""AAABB"", ""AAAAB""], ""truth_table"" => []}",Sun Dec 01 2019 10:37:45 GMT+0000 (Greenwich Mean Time),1575196665450,1|1|1|1|1|1|1|1|1|1|1|1|1|1|1|1|1|1|1|1|1|1|1|1|1|1|1|1|1|1|1|1|1|1|1|1|1|1|1|1|1|1|1|1|1|0|0|0|1|1|1|1|1|1|1|1|1|0|0|0,17.21085,main_trials,9
421,,14071,52,all|most|some|none,all|most|some|none,right|wrong,5,,high,placeholder,Graduated High School,1575197698101,placeholder,10,female,English,5afc9c20fa4ce800018e5166,Describe these results of <strong>Green Valley</strong> so as to make it appear as if there is a <strong>high</strong> success rate without lying.,all|all|right,12|12|12|12|12,In this exam,of the students got,of the questions,.,20,"%{""instances"" => [%{""n_col"" => 12, ""rows"" => '\f\f\f\f\f'}], ""number"" => 20, ""sequence"" => [""AAAAA""], ""truth_table"" => []}",Sun Dec 01 2019 10:37:45 GMT+0000 (Greenwich Mean Time),1575196665450,1|1|1|1|1|1|1|1|1|1|1|1|1|1|1|1|1|1|1|1|1|1|1|1|1|1|1|1|1|1|1|1|1|1|1|1|1|1|1|1|1|1|1|1|1|1|1|1|1|1|1|1|1|1|1|1|1|1|1|1,17.21085,main_trials,10
421,,46038,52,all|most|some|none,all|most|some|none,right|wrong,5,,high,placeholder,Graduated High School,1575197698101,placeholder,10,female,English,5afc9c20fa4ce800018e5166,Describe these results of <strong>Green Valley</strong> so as to make it appear as if there is a <strong>high</strong> success rate without lying.,most|some|right,9|9|3|0|0,In this exam,of the students got,of the questions,.,6,"%{""instances"" => [%{""n_col"" => 12, ""rows"" => [9, 9, 3, 0, 0]}], ""number"" => 6, ""sequence"" => [""BCCCD"", ""BCCDD"", ""BBCDD"", ""BBCCD""], ""truth_table"" => []}",Sun Dec 01 2019 10:37:45 GMT+0000 (Greenwich Mean Time),1575196665450,1|1|1|1|1|1|1|1|1|0|0|0|1|1|1|1|1|1|1|1|1|0|0|0|1|1|1|0|0|0|0|0|0|0|0|0|0|0|0|0|0|0|0|0|0|0|0|0|0|0|0|0|0|0|0|0|0|0|0|0,17.21085,main_trials,11
421,,16625,52,all|most|some|none,all|most|some|none,right|wrong,5,,high,placeholder,Graduated High School,1575197698101,placeholder,10,female,English,5afc9c20fa4ce800018e5166,Describe these results of <strong>Green Valley</strong> so as to make it appear as if there is a <strong>high</strong> success rate without lying.,all|most|right,9|9|9|9|9,In this exam,of the students got,of the questions,.,17,"%{""instances"" => [%{""n_col"" => 12, ""rows"" => '\t\t\t\t\t'}], ""number"" => 17, ""sequence"" => [""BBBBB""], ""truth_table"" => []}",Sun Dec 01 2019 10:37:45 GMT+0000 (Greenwich Mean Time),1575196665450,1|1|1|1|1|1|1|1|1|0|0|0|1|1|1|1|1|1|1|1|1|0|0|0|1|1|1|1|1|1|1|1|1|0|0|0|1|1|1|1|1|1|1|1|1|0|0|0|1|1|1|1|1|1|1|1|1|0|0|0,17.21085,main_trials,12
421,,32357,52,all|most|some|none,all|most|some|none,right|wrong,5,,high,placeholder,Graduated High School,1575197698101,placeholder,10,female,English,5afc9c20fa4ce800018e5166,Describe these results of <strong>Green Valley</strong> so as to make it appear as if there is a <strong>high</strong> success rate without lying.,all|some|right,9|9|3|3|3,In this exam,of the students got,of the questions,.,12,"%{""instances"" => [%{""n_col"" => 12, ""rows"" => [9, 9, 3, 3, 3]}], ""number"" => 12, ""sequence"" => [""BCCCC"", ""BBCCC""], ""truth_table"" => []}",Sun Dec 01 2019 10:37:45 GMT+0000 (Greenwich Mean Time),1575196665450,1|1|1|1|1|1|1|1|1|0|0|0|1|1|1|1|1|1|1|1|1|0|0|0|1|1|1|0|0|0|0|0|0|0|0|0|1|1|1|0|0|0|0|0|0|0|0|0|1|1|1|0|0|0|0|0|0|0|0|0,17.21085,main_trials,13
421,,18293,52,all|most|some|none,all|most|some|none,right|wrong,5,,high,placeholder,Graduated High School,1575197698101,placeholder,10,female,English,5afc9c20fa4ce800018e5166,Describe these results of <strong>Green Valley</strong> so as to make it appear as if there is a <strong>high</strong> success rate without lying.,most|some|right,12|12|3|0|0,In this exam,of the students got,of the questions,.,1,"%{""instances"" => [%{""n_col"" => 12, ""rows"" => [12, 12, 3, 0, 0]}], ""number"" => 1, ""sequence"" => [""ACCCD"", ""ACCDD"", ""AACDD"", ""AACCD"", ""ABCDD"", ""ABCCD""], ""truth_table"" => []}",Sun Dec 01 2019 10:37:45 GMT+0000 (Greenwich Mean Time),1575196665450,1|1|1|1|1|1|1|1|1|1|1|1|1|1|1|1|1|1|1|1|1|1|1|1|1|1|1|0|0|0|0|0|0|0|0|0|0|0|0|0|0|0|0|0|0|0|0|0|0|0|0|0|0|0|0|0|0|0|0|0,17.21085,main_trials,14
421,,23583,52,all|most|some|none,all|most|some|none,right|wrong,5,,low,placeholder,Graduated High School,1575197698101,placeholder,10,female,English,5afc9c20fa4ce800018e5166,Describe these results of <strong>Riverside</strong> so as to make it appear as if there is a <strong>low</strong> success rate without lying.,some|some|right,12|12|9|0|0,In this exam,of the students got,of the questions,.,8,"%{""instances"" => [%{""n_col"" => 12, ""rows"" => [12, 12, 9, 0, 0]}], ""number"" => 8, ""sequence"" => [""ABBBD"", ""ABBDD"", ""AABDD"", ""ABBBD"", ""ABBCD"", ""AABCD""], ""truth_table"" => []}",Sun Dec 01 2019 10:37:45 GMT+0000 (Greenwich Mean Time),1575196665450,1|1|1|1|1|1|1|1|1|1|1|1|1|1|1|1|1|1|1|1|1|1|1|1|1|1|1|1|1|1|1|1|1|0|0|0|0|0|0|0|0|0|0|0|0|0|0|0|0|0|0|0|0|0|0|0|0|0|0|0,17.21085,main_trials,15
421,,45223,52,all|most|some|none,all|most|some|none,right|wrong,5,,low,placeholder,Graduated High School,1575197698101,placeholder,10,female,English,5afc9c20fa4ce800018e5166,Describe these results of <strong>Riverside</strong> so as to make it appear as if there is a <strong>low</strong> success rate without lying.,most|most|wrong,12|12|3|3|3,In this exam,of the students got,of the questions,.,13,"%{""instances"" => [%{""n_col"" => 12, ""rows"" => [12, 12, 3, 3, 3]}], ""number"" => 13, ""sequence"" => [""ACCCC"", ""AACCC"", ""ABCCC""], ""truth_table"" => []}",Sun Dec 01 2019 10:37:45 GMT+0000 (Greenwich Mean Time),1575196665450,1|1|1|1|1|1|1|1|1|1|1|1|1|1|1|1|1|1|1|1|1|1|1|1|1|1|1|0|0|0|0|0|0|0|0|0|1|1|1|0|0|0|0|0|0|0|0|0|1|1|1|0|0|0|0|0|0|0|0|0,17.21085,main_trials,16
421,,26329,52,all|most|some|none,all|most|some|none,right|wrong,5,,low,placeholder,Graduated High School,1575197698101,placeholder,10,female,English,5afc9c20fa4ce800018e5166,Describe these results of <strong>Riverside</strong> so as to make it appear as if there is a <strong>low</strong> success rate without lying.,most|all|wrong,9|9|0|0|0,In this exam,of the students got,of the questions,.,3,"%{""instances"" => [%{""n_col"" => 12, ""rows"" => [9, 9, 0, 0, 0]}], ""number"" => 3, ""sequence"" => [""BDDDD"", ""BBDDD"", ""BCDDD""], ""truth_table"" => []}",Sun Dec 01 2019 10:37:45 GMT+0000 (Greenwich Mean Time),1575196665450,1|1|1|1|1|1|1|1|1|0|0|0|1|1|1|1|1|1|1|1|1|0|0|0|0|0|0|0|0|0|0|0|0|0|0|0|0|0|0|0|0|0|0|0|0|0|0|0|0|0|0|0|0|0|0|0|0|0|0|0,17.21085,main_trials,17
421,,53019,52,all|most|some|none,all|most|some|none,right|wrong,5,,low,placeholder,Graduated High School,1575197698101,placeholder,10,female,English,5afc9c20fa4ce800018e5166,Describe these results of <strong>Riverside</strong> so as to make it appear as if there is a <strong>low</strong> success rate without lying.,none|all|right,9|9|9|0|0,In this exam,of the students got,of the questions,.,7,"%{""instances"" => [%{""n_col"" => 12, ""rows"" => [9, 9, 9, 0, 0]}], ""number"" => 7, ""sequence"" => [""BBBDD"", ""BBBBD"", ""BBBCD""], ""truth_table"" => []}",Sun Dec 01 2019 10:37:45 GMT+0000 (Greenwich Mean Time),1575196665450,1|1|1|1|1|1|1|1|1|0|0|0|1|1|1|1|1|1|1|1|1|0|0|0|1|1|1|1|1|1|1|1|1|0|0|0|0|0|0|0|0|0|0|0|0|0|0|0|0|0|0|0|0|0|0|0|0|0|0|0,17.21085,main_trials,18
421,,22739,52,all|most|some|none,all|most|some|none,right|wrong,5,,low,placeholder,Graduated High School,1575197698101,placeholder,10,female,English,5afc9c20fa4ce800018e5166,Describe these results of <strong>Riverside</strong> so as to make it appear as if there is a <strong>low</strong> success rate without lying.,some|most|wrong,12|12|12|3|3,In this exam,of the students got,of the questions,.,16,"%{""instances"" => [%{""n_col"" => 12, ""rows"" => [12, 12, 12, 3, 3]}], ""number"" => 16, ""sequence"" => [""AAACC"", ""AAAAC"", ""AAABC""], ""truth_table"" => []}",Sun Dec 01 2019 10:37:45 GMT+0000 (Greenwich Mean Time),1575196665450,1|1|1|1|1|1|1|1|1|1|1|1|1|1|1|1|1|1|1|1|1|1|1|1|1|1|1|1|1|1|1|1|1|1|1|1|1|1|1|0|0|0|0|0|0|0|0|0|1|1|1|0|0|0|0|0|0|0|0|0,17.21085,main_trials,19
421,,20050,52,all|most|some|none,all|most|some|none,right|wrong,5,,low,placeholder,Graduated High School,1575197698101,placeholder,10,female,English,5afc9c20fa4ce800018e5166,Describe these results of <strong>Riverside</strong> so as to make it appear as if there is a <strong>low</strong> success rate without lying.,some|most|wrong,12|12|9|3|3,In this exam,of the students got,of the questions,.,15,"%{""instances"" => [%{""n_col"" => 12, ""rows"" => [12, 12, 9, 3, 3]}], ""number"" => 15, ""sequence"" => [""ABBBC"", ""ABBCC"", ""AABCC"", ""AABBC""], ""truth_table"" => []}",Sun Dec 01 2019 10:37:45 GMT+0000 (Greenwich Mean Time),1575196665450,1|1|1|1|1|1|1|1|1|1|1|1|1|1|1|1|1|1|1|1|1|1|1|1|1|1|1|1|1|1|1|1|1|0|0|0|1|1|1|0|0|0|0|0|0|0|0|0|1|1|1|0|0|0|0|0|0|0|0|0,17.21085,main_trials,20
420,,56136,35,all|most|some|none,all|most|some|none,right|wrong,5,,high,placeholder,Graduated College,1575197568952,placeholder,10,male,English,5da1d55b660ee0001756ad51,Describe these results of <strong>Green Valley</strong> so as to make it appear as if there is a <strong>high</strong> success rate without lying.,some|all|right,12|12|0|0|0,In this exam,of the students got,of the questions,.,4,"%{""instances"" => [%{""n_col"" => 12, ""rows"" => [12, 12, 0, 0, 0]}], ""number"" => 4, ""sequence"" => [""ADDDD"", ""AADDD"", ""ABDDD"", ""ACDDD""], ""truth_table"" => []}",Sun Dec 01 2019 10:42:00 GMT+0000 (Greenwich Mean Time),1575196920649,1|1|1|1|1|1|1|1|1|1|1|1|1|1|1|1|1|1|1|1|1|1|1|1|0|0|0|0|0|0|0|0|0|0|0|0|0|0|0|0|0|0|0|0|0|0|0|0|0|0|0|0|0|0|0|0|0|0|0|0,10.80505,training_trials,1
420,,15312,35,all|most|some|none,all|most|some|none,right|wrong,5,,low,placeholder,Graduated College,1575197568952,placeholder,10,male,English,5da1d55b660ee0001756ad51,Describe these results of <strong>Riverside</strong> so as to make it appear as if there is a <strong>low</strong> success rate without lying.,most|all|wrong,12|12|0|0|0,In this exam,of the students got,of the questions,.,4,"%{""instances"" => [%{""n_col"" => 12, ""rows"" => [12, 12, 0, 0, 0]}], ""number"" => 4, ""sequence"" => [""ADDDD"", ""AADDD"", ""ABDDD"", ""ACDDD""], ""truth_table"" => []}",Sun Dec 01 2019 10:42:00 GMT+0000 (Greenwich Mean Time),1575196920649,1|1|1|1|1|1|1|1|1|1|1|1|1|1|1|1|1|1|1|1|1|1|1|1|0|0|0|0|0|0|0|0|0|0|0|0|0|0|0|0|0|0|0|0|0|0|0|0|0|0|0|0|0|0|0|0|0|0|0|0,10.80505,training_trials,2
420,,17383,35,all|most|some|none,all|most|some|none,right|wrong,5,,high,placeholder,Graduated College,1575197568952,placeholder,10,male,English,5da1d55b660ee0001756ad51,Describe these results of <strong>Green Valley</strong> so as to make it appear as if there is a <strong>high</strong> success rate without lying.,some|most|right,9|9|3|3|3,In this exam,of the students got,of the questions,.,12,"%{""instances"" => [%{""n_col"" => 12, ""rows"" => [9, 9, 3, 3, 3]}], ""number"" => 12, ""sequence"" => [""BCCCC"", ""BBCCC""], ""truth_table"" => []}",Sun Dec 01 2019 10:42:00 GMT+0000 (Greenwich Mean Time),1575196920649,1|1|1|1|1|1|1|1|1|0|0|0|1|1|1|1|1|1|1|1|1|0|0|0|1|1|1|0|0|0|0|0|0|0|0|0|1|1|1|0|0|0|0|0|0|0|0|0|1|1|1|0|0|0|0|0|0|0|0|0,10.80505,training_trials,3
420,,13636,35,all|most|some|none,all|most|some|none,right|wrong,5,,low,placeholder,Graduated College,1575197568952,placeholder,10,male,English,5da1d55b660ee0001756ad51,Describe these results of <strong>Riverside</strong> so as to make it appear as if there is a <strong>low</strong> success rate without lying.,most|most|wrong,9|9|3|3|3,In this exam,of the students got,of the questions,.,12,"%{""instances"" => [%{""n_col"" => 12, ""rows"" => [9, 9, 3, 3, 3]}], ""number"" => 12, ""sequence"" => [""BCCCC"", ""BBCCC""], ""truth_table"" => []}",Sun Dec 01 2019 10:42:00 GMT+0000 (Greenwich Mean Time),1575196920649,1|1|1|1|1|1|1|1|1|0|0|0|1|1|1|1|1|1|1|1|1|0|0|0|1|1|1|0|0|0|0|0|0|0|0|0|1|1|1|0|0|0|0|0|0|0|0|0|1|1|1|0|0|0|0|0|0|0|0|0,10.80505,training_trials,4
420,,14775,35,all|most|some|none,all|most|some|none,right|wrong,5,,high,placeholder,Graduated College,1575197568952,placeholder,10,male,English,5da1d55b660ee0001756ad51,Describe these results of <strong>Green Valley</strong> so as to make it appear as if there is a <strong>high</strong> success rate without lying.,some|most|right,9|9|0|0|0,In this exam,of the students got,of the questions,.,3,"%{""instances"" => [%{""n_col"" => 12, ""rows"" => [9, 9, 0, 0, 0]}], ""number"" => 3, ""sequence"" => [""BDDDD"", ""BBDDD"", ""BCDDD""], ""truth_table"" => []}",Sun Dec 01 2019 10:42:00 GMT+0000 (Greenwich Mean Time),1575196920649,1|1|1|1|1|1|1|1|1|0|0|0|1|1|1|1|1|1|1|1|1|0|0|0|0|0|0|0|0|0|0|0|0|0|0|0|0|0|0|0|0|0|0|0|0|0|0|0|0|0|0|0|0|0|0|0|0|0|0|0,10.80505,main_trials,1
420,,12851,35,all|most|some|none,all|most|some|none,right|wrong,5,,low,placeholder,Graduated College,1575197568952,placeholder,10,male,English,5da1d55b660ee0001756ad51,Describe these results of <strong>Riverside</strong> so as to make it appear as if there is a <strong>low</strong> success rate without lying.,most|most|wrong,9|9|3|3|3,In this exam,of the students got,of the questions,.,12,"%{""instances"" => [%{""n_col"" => 12, ""rows"" => [9, 9, 3, 3, 3]}], ""number"" => 12, ""sequence"" => [""BCCCC"", ""BBCCC""], ""truth_table"" => []}",Sun Dec 01 2019 10:42:00 GMT+0000 (Greenwich Mean Time),1575196920649,1|1|1|1|1|1|1|1|1|0|0|0|1|1|1|1|1|1|1|1|1|0|0|0|1|1|1|0|0|0|0|0|0|0|0|0|1|1|1|0|0|0|0|0|0|0|0|0|1|1|1|0|0|0|0|0|0|0|0|0,10.80505,main_trials,2
420,,50543,35,all|most|some|none,all|most|some|none,right|wrong,5,,high,placeholder,Graduated College,1575197568952,placeholder,10,male,English,5da1d55b660ee0001756ad51,Describe these results of <strong>Green Valley</strong> so as to make it appear as if there is a <strong>high</strong> success rate without lying.,none|all|wrong,3|3|3|0|0,In this exam,of the students got,of the questions,.,5,"%{""instances"" => [%{""n_col"" => 12, ""rows"" => [3, 3, 3, 0, 0]}], ""number"" => 5, ""sequence"" => [""CCCDD"", ""CCCCD""], ""truth_table"" => []}",Sun Dec 01 2019 10:42:00 GMT+0000 (Greenwich Mean Time),1575196920649,1|1|1|0|0|0|0|0|0|0|0|0|1|1|1|0|0|0|0|0|0|0|0|0|1|1|1|0|0|0|0|0|0|0|0|0|0|0|0|0|0|0|0|0|0|0|0|0|0|0|0|0|0|0|0|0|0|0|0|0,10.80505,main_trials,3
420,,44034,35,all|most|some|none,all|most|some|none,right|wrong,5,,low,placeholder,Graduated College,1575197568952,placeholder,10,male,English,5da1d55b660ee0001756ad51,Describe these results of <strong>Riverside</strong> so as to make it appear as if there is a <strong>low</strong> success rate without lying.,some|most|right,12|12|12|12|12,In this exam,of the students got,of the questions,.,20,"%{""instances"" => [%{""n_col"" => 12, ""rows"" => '\f\f\f\f\f'}], ""number"" => 20, ""sequence"" => [""AAAAA""], ""truth_table"" => []}",Sun Dec 01 2019 10:42:00 GMT+0000 (Greenwich Mean Time),1575196920649,1|1|1|1|1|1|1|1|1|1|1|1|1|1|1|1|1|1|1|1|1|1|1|1|1|1|1|1|1|1|1|1|1|1|1|1|1|1|1|1|1|1|1|1|1|1|1|1|1|1|1|1|1|1|1|1|1|1|1|1,10.80505,main_trials,4
420,,23182,35,all|most|some|none,all|most|some|none,right|wrong,5,,low,placeholder,Graduated College,1575197568952,placeholder,10,male,English,5da1d55b660ee0001756ad51,Describe these results of <strong>Riverside</strong> so as to make it appear as if there is a <strong>low</strong> success rate without lying.,most|most|wrong,12|12|3|3|3,In this exam,of the students got,of the questions,.,13,"%{""instances"" => [%{""n_col"" => 12, ""rows"" => [12, 12, 3, 3, 3]}], ""number"" => 13, ""sequence"" => [""ACCCC"", ""AACCC"", ""ABCCC""], ""truth_table"" => []}",Sun Dec 01 2019 10:42:00 GMT+0000 (Greenwich Mean Time),1575196920649,1|1|1|1|1|1|1|1|1|1|1|1|1|1|1|1|1|1|1|1|1|1|1|1|1|1|1|0|0|0|0|0|0|0|0|0|1|1|1|0|0|0|0|0|0|0|0|0|1|1|1|0|0|0|0|0|0|0|0|0,10.80505,main_trials,5
420,,18489,35,all|most|some|none,all|most|some|none,right|wrong,5,,low,placeholder,Graduated College,1575197568952,placeholder,10,male,English,5da1d55b660ee0001756ad51,Describe these results of <strong>Riverside</strong> so as to make it appear as if there is a <strong>low</strong> success rate without lying.,none|all|right,3|3|3|3|3,In this exam,of the students got,of the questions,.,11,"%{""instances"" => [%{""n_col"" => 12, ""rows"" => [3, 3, 3, 3, 3]}], ""number"" => 11, ""sequence"" => [""CCCCC""], ""truth_table"" => []}",Sun Dec 01 2019 10:42:00 GMT+0000 (Greenwich Mean Time),1575196920649,1|1|1|0|0|0|0|0|0|0|0|0|1|1|1|0|0|0|0|0|0|0|0|0|1|1|1|0|0|0|0|0|0|0|0|0|1|1|1|0|0|0|0|0|0|0|0|0|1|1|1|0|0|0|0|0|0|0|0|0,10.80505,main_trials,6
420,,7841,35,all|most|some|none,all|most|some|none,right|wrong,5,,low,placeholder,Graduated College,1575197568952,placeholder,10,male,English,5da1d55b660ee0001756ad51,Describe these results of <strong>Riverside</strong> so as to make it appear as if there is a <strong>low</strong> success rate without lying.,none|all|right,9|9|9|0|0,In this exam,of the students got,of the questions,.,7,"%{""instances"" => [%{""n_col"" => 12, ""rows"" => [9, 9, 9, 0, 0]}], ""number"" => 7, ""sequence"" => [""BBBDD"", ""BBBBD"", ""BBBCD""], ""truth_table"" => []}",Sun Dec 01 2019 10:42:00 GMT+0000 (Greenwich Mean Time),1575196920649,1|1|1|1|1|1|1|1|1|0|0|0|1|1|1|1|1|1|1|1|1|0|0|0|1|1|1|1|1|1|1|1|1|0|0|0|0|0|0|0|0|0|0|0|0|0|0|0|0|0|0|0|0|0|0|0|0|0|0|0,10.80505,main_trials,7
420,,17559,35,all|most|some|none,all|most|some|none,right|wrong,5,,low,placeholder,Graduated College,1575197568952,placeholder,10,male,English,5da1d55b660ee0001756ad51,Describe these results of <strong>Riverside</strong> so as to make it appear as if there is a <strong>low</strong> success rate without lying.,none|all|right,9|9|9|9|9,In this exam,of the students got,of the questions,.,17,"%{""instances"" => [%{""n_col"" => 12, ""rows"" => '\t\t\t\t\t'}], ""number"" => 17, ""sequence"" => [""BBBBB""], ""truth_table"" => []}",Sun Dec 01 2019 10:42:00 GMT+0000 (Greenwich Mean Time),1575196920649,1|1|1|1|1|1|1|1|1|0|0|0|1|1|1|1|1|1|1|1|1|0|0|0|1|1|1|1|1|1|1|1|1|0|0|0|1|1|1|1|1|1|1|1|1|0|0|0|1|1|1|1|1|1|1|1|1|0|0|0,10.80505,main_trials,8
420,,11348,35,all|most|some|none,all|most|some|none,right|wrong,5,,low,placeholder,Graduated College,1575197568952,placeholder,10,male,English,5da1d55b660ee0001756ad51,Describe these results of <strong>Riverside</strong> so as to make it appear as if there is a <strong>low</strong> success rate without lying.,some|most|wrong,12|12|12|3|3,In this exam,of the students got,of the questions,.,16,"%{""instances"" => [%{""n_col"" => 12, ""rows"" => [12, 12, 12, 3, 3]}], ""number"" => 16, ""sequence"" => [""AAACC"", ""AAAAC"", ""AAABC""], ""truth_table"" => []}",Sun Dec 01 2019 10:42:00 GMT+0000 (Greenwich Mean Time),1575196920649,1|1|1|1|1|1|1|1|1|1|1|1|1|1|1|1|1|1|1|1|1|1|1|1|1|1|1|1|1|1|1|1|1|1|1|1|1|1|1|0|0|0|0|0|0|0|0|0|1|1|1|0|0|0|0|0|0|0|0|0,10.80505,main_trials,9
420,,9336,35,all|most|some|none,all|most|some|none,right|wrong,5,,low,placeholder,Graduated College,1575197568952,placeholder,10,male,English,5da1d55b660ee0001756ad51,Describe these results of <strong>Riverside</strong> so as to make it appear as if there is a <strong>low</strong> success rate without lying.,some|all|wrong,12|12|3|0|0,In this exam,of the students got,of the questions,.,1,"%{""instances"" => [%{""n_col"" => 12, ""rows"" => [12, 12, 3, 0, 0]}], ""number"" => 1, ""sequence"" => [""ACCCD"", ""ACCDD"", ""AACDD"", ""AACCD"", ""ABCDD"", ""ABCCD""], ""truth_table"" => []}",Sun Dec 01 2019 10:42:00 GMT+0000 (Greenwich Mean Time),1575196920649,1|1|1|1|1|1|1|1|1|1|1|1|1|1|1|1|1|1|1|1|1|1|1|1|1|1|1|0|0|0|0|0|0|0|0|0|0|0|0|0|0|0|0|0|0|0|0|0|0|0|0|0|0|0|0|0|0|0|0|0,10.80505,main_trials,10
420,,6864,35,all|most|some|none,all|most|some|none,right|wrong,5,,high,placeholder,Graduated College,1575197568952,placeholder,10,male,English,5da1d55b660ee0001756ad51,Describe these results of <strong>Green Valley</strong> so as to make it appear as if there is a <strong>high</strong> success rate without lying.,most|all|wrong,12|12|0|0|0,In this exam,of the students got,of the questions,.,4,"%{""instances"" => [%{""n_col"" => 12, ""rows"" => [12, 12, 0, 0, 0]}], ""number"" => 4, ""sequence"" => [""ADDDD"", ""AADDD"", ""ABDDD"", ""ACDDD""], ""truth_table"" => []}",Sun Dec 01 2019 10:42:00 GMT+0000 (Greenwich Mean Time),1575196920649,1|1|1|1|1|1|1|1|1|1|1|1|1|1|1|1|1|1|1|1|1|1|1|1|0|0|0|0|0|0|0|0|0|0|0|0|0|0|0|0|0|0|0|0|0|0|0|0|0|0|0|0|0|0|0|0|0|0|0|0,10.80505,main_trials,11
420,,18344,35,all|most|some|none,all|most|some|none,right|wrong,5,,high,placeholder,Graduated College,1575197568952,placeholder,10,male,English,5da1d55b660ee0001756ad51,Describe these results of <strong>Green Valley</strong> so as to make it appear as if there is a <strong>high</strong> success rate without lying.,some|all|right,12|12|9|3|3,In this exam,of the students got,of the questions,.,15,"%{""instances"" => [%{""n_col"" => 12, ""rows"" => [12, 12, 9, 3, 3]}], ""number"" => 15, ""sequence"" => [""ABBBC"", ""ABBCC"", ""AABCC"", ""AABBC""], ""truth_table"" => []}",Sun Dec 01 2019 10:42:00 GMT+0000 (Greenwich Mean Time),1575196920649,1|1|1|1|1|1|1|1|1|1|1|1|1|1|1|1|1|1|1|1|1|1|1|1|1|1|1|1|1|1|1|1|1|0|0|0|1|1|1|0|0|0|0|0|0|0|0|0|1|1|1|0|0|0|0|0|0|0|0|0,10.80505,main_trials,12
420,,14730,35,all|most|some|none,all|most|some|none,right|wrong,5,,high,placeholder,Graduated College,1575197568952,placeholder,10,male,English,5da1d55b660ee0001756ad51,Describe these results of <strong>Green Valley</strong> so as to make it appear as if there is a <strong>high</strong> success rate without lying.,most|all|right,12|12|12|9|9,In this exam,of the students got,of the questions,.,19,"%{""instances"" => [%{""n_col"" => 12, ""rows"" => '\f\f\f\t\t'}], ""number"" => 19, ""sequence"" => [""AAABB"", ""AAAAB""], ""truth_table"" => []}",Sun Dec 01 2019 10:42:00 GMT+0000 (Greenwich Mean Time),1575196920649,1|1|1|1|1|1|1|1|1|1|1|1|1|1|1|1|1|1|1|1|1|1|1|1|1|1|1|1|1|1|1|1|1|1|1|1|1|1|1|1|1|1|1|1|1|0|0|0|1|1|1|1|1|1|1|1|1|0|0|0,10.80505,main_trials,13
420,,54246,35,all|most|some|none,all|most|some|none,right|wrong,5,,low,placeholder,Graduated College,1575197568952,placeholder,10,male,English,5da1d55b660ee0001756ad51,Describe these results of <strong>Riverside</strong> so as to make it appear as if there is a <strong>low</strong> success rate without lying.,most|some|wrong,12|12|9|9|9,In this exam,of the students got,of the questions,.,18,"%{""instances"" => [%{""n_col"" => 12, ""rows"" => '\f\f\t\t\t'}], ""number"" => 18, ""sequence"" => [""ABBBB"", ""AABBB""], ""truth_table"" => []}",Sun Dec 01 2019 10:42:00 GMT+0000 (Greenwich Mean Time),1575196920649,1|1|1|1|1|1|1|1|1|1|1|1|1|1|1|1|1|1|1|1|1|1|1|1|1|1|1|1|1|1|1|1|1|0|0|0|1|1|1|1|1|1|1|1|1|0|0|0|1|1|1|1|1|1|1|1|1|0|0|0,10.80505,main_trials,14
420,,12655,35,all|most|some|none,all|most|some|none,right|wrong,5,,high,placeholder,Graduated College,1575197568952,placeholder,10,male,English,5da1d55b660ee0001756ad51,Describe these results of <strong>Green Valley</strong> so as to make it appear as if there is a <strong>high</strong> success rate without lying.,some|most|right,9|9|3|0|0,In this exam,of the students got,of the questions,.,6,"%{""instances"" => [%{""n_col"" => 12, ""rows"" => [9, 9, 3, 0, 0]}], ""number"" => 6, ""sequence"" => [""BCCCD"", ""BCCDD"", ""BBCDD"", ""BBCCD""], ""truth_table"" => []}",Sun Dec 01 2019 10:42:00 GMT+0000 (Greenwich Mean Time),1575196920649,1|1|1|1|1|1|1|1|1|0|0|0|1|1|1|1|1|1|1|1|1|0|0|0|1|1|1|0|0|0|0|0|0|0|0|0|0|0|0|0|0|0|0|0|0|0|0|0|0|0|0|0|0|0|0|0|0|0|0|0,10.80505,main_trials,15
420,,27977,35,all|most|some|none,all|most|some|none,right|wrong,5,,low,placeholder,Graduated College,1575197568952,placeholder,10,male,English,5da1d55b660ee0001756ad51,Describe these results of <strong>Riverside</strong> so as to make it appear as if there is a <strong>low</strong> success rate without lying.,none|all|right,3|3|0|0|0,In this exam,of the students got,of the questions,.,2,"%{""instances"" => [%{""n_col"" => 12, ""rows"" => [3, 3, 0, 0, 0]}], ""number"" => 2, ""sequence"" => [""CDDDD"", ""CCDDD""], ""truth_table"" => []}",Sun Dec 01 2019 10:42:00 GMT+0000 (Greenwich Mean Time),1575196920649,1|1|1|0|0|0|0|0|0|0|0|0|1|1|1|0|0|0|0|0|0|0|0|0|0|0|0|0|0|0|0|0|0|0|0|0|0|0|0|0|0|0|0|0|0|0|0|0|0|0|0|0|0|0|0|0|0|0|0|0,10.80505,main_trials,16
420,,8839,35,all|most|some|none,all|most|some|none,right|wrong,5,,high,placeholder,Graduated College,1575197568952,placeholder,10,male,English,5da1d55b660ee0001756ad51,Describe these results of <strong>Green Valley</strong> so as to make it appear as if there is a <strong>high</strong> success rate without lying.,most|most|right,9|9|9|3|3,In this exam,of the students got,of the questions,.,14,"%{""instances"" => [%{""n_col"" => 12, ""rows"" => [9, 9, 9, 3, 3]}], ""number"" => 14, ""sequence"" => [""BBBCC"", ""BBBBC""], ""truth_table"" => []}",Sun Dec 01 2019 10:42:00 GMT+0000 (Greenwich Mean Time),1575196920649,1|1|1|1|1|1|1|1|1|0|0|0|1|1|1|1|1|1|1|1|1|0|0|0|1|1|1|1|1|1|1|1|1|0|0|0|1|1|1|0|0|0|0|0|0|0|0|0|1|1|1|0|0|0|0|0|0|0|0|0,10.80505,main_trials,17
420,,36807,35,all|most|some|none,all|most|some|none,right|wrong,5,,high,placeholder,Graduated College,1575197568952,placeholder,10,male,English,5da1d55b660ee0001756ad51,Describe these results of <strong>Green Valley</strong> so as to make it appear as if there is a <strong>high</strong> success rate without lying.,some|some|wrong,0|0|0|0|0,In this exam,of the students got,of the questions,.,10,"%{""instances"" => [%{""n_col"" => 12, ""rows"" => [0, 0, 0, 0, 0]}], ""number"" => 10, ""sequence"" => [""DDDDD""], ""truth_table"" => []}",Sun Dec 01 2019 10:42:00 GMT+0000 (Greenwich Mean Time),1575196920649,0|0|0|0|0|0|0|0|0|0|0|0|0|0|0|0|0|0|0|0|0|0|0|0|0|0|0|0|0|0|0|0|0|0|0|0|0|0|0|0|0|0|0|0|0|0|0|0|0|0|0|0|0|0|0|0|0|0|0|0,10.80505,main_trials,18
420,,18946,35,all|most|some|none,all|most|some|none,right|wrong,5,,high,placeholder,Graduated College,1575197568952,placeholder,10,male,English,5da1d55b660ee0001756ad51,Describe these results of <strong>Green Valley</strong> so as to make it appear as if there is a <strong>high</strong> success rate without lying.,most|all|right,12|12|12|0|0,In this exam,of the students got,of the questions,.,9,"%{""instances"" => [%{""n_col"" => 12, ""rows"" => [12, 12, 12, 0, 0]}], ""number"" => 9, ""sequence"" => [""AAADD"", ""AAAAD"", ""AAABD"", ""AAACD""], ""truth_table"" => []}",Sun Dec 01 2019 10:42:00 GMT+0000 (Greenwich Mean Time),1575196920649,1|1|1|1|1|1|1|1|1|1|1|1|1|1|1|1|1|1|1|1|1|1|1|1|1|1|1|1|1|1|1|1|1|1|1|1|0|0|0|0|0|0|0|0|0|0|0|0|0|0|0|0|0|0|0|0|0|0|0|0,10.80505,main_trials,19
420,,11787,35,all|most|some|none,all|most|some|none,right|wrong,5,,high,placeholder,Graduated College,1575197568952,placeholder,10,male,English,5da1d55b660ee0001756ad51,Describe these results of <strong>Green Valley</strong> so as to make it appear as if there is a <strong>high</strong> success rate without lying.,some|all|right,12|12|9|0|0,In this exam,of the students got,of the questions,.,8,"%{""instances"" => [%{""n_col"" => 12, ""rows"" => [12, 12, 9, 0, 0]}], ""number"" => 8, ""sequence"" => [""ABBBD"", ""ABBDD"", ""AABDD"", ""ABBBD"", ""ABBCD"", ""AABCD""], ""truth_table"" => []}",Sun Dec 01 2019 10:42:00 GMT+0000 (Greenwich Mean Time),1575196920649,1|1|1|1|1|1|1|1|1|1|1|1|1|1|1|1|1|1|1|1|1|1|1|1|1|1|1|1|1|1|1|1|1|0|0|0|0|0|0|0|0|0|0|0|0|0|0|0|0|0|0|0|0|0|0|0|0|0|0|0,10.80505,main_trials,20
419,,28318,41,all|most|some|none,all|most|some|none,right|wrong,5,,high,placeholder,Graduated College,1575197419945,placeholder,10,female,english,597889de37978a00016b3664,Describe these results of <strong>Green Valley</strong> so as to make it appear as if there is a <strong>high</strong> success rate without lying.,some|all|right,12|12|0|0|0,In this exam,of the students got,of the questions,.,4,"%{""instances"" => [%{""n_col"" => 12, ""rows"" => [12, 12, 0, 0, 0]}], ""number"" => 4, ""sequence"" => [""ADDDD"", ""AADDD"", ""ABDDD"", ""ACDDD""], ""truth_table"" => []}",Sun Dec 01 2019 10:42:06 GMT+0000 (GMT Standard Time),1575196926674,1|1|1|1|1|1|1|1|1|1|1|1|1|1|1|1|1|1|1|1|1|1|1|1|0|0|0|0|0|0|0|0|0|0|0|0|0|0|0|0|0|0|0|0|0|0|0|0|0|0|0|0|0|0|0|0|0|0|0|0,8.221183333333334,training_trials,1
419,,17252,41,all|most|some|none,all|most|some|none,right|wrong,5,,low,placeholder,Graduated College,1575197419945,placeholder,10,female,english,597889de37978a00016b3664,Describe these results of <strong>Riverside</strong> so as to make it appear as if there is a <strong>low</strong> success rate without lying.,most|all|wrong,12|12|0|0|0,In this exam,of the students got,of the questions,.,4,"%{""instances"" => [%{""n_col"" => 12, ""rows"" => [12, 12, 0, 0, 0]}], ""number"" => 4, ""sequence"" => [""ADDDD"", ""AADDD"", ""ABDDD"", ""ACDDD""], ""truth_table"" => []}",Sun Dec 01 2019 10:42:06 GMT+0000 (GMT Standard Time),1575196926674,1|1|1|1|1|1|1|1|1|1|1|1|1|1|1|1|1|1|1|1|1|1|1|1|0|0|0|0|0|0|0|0|0|0|0|0|0|0|0|0|0|0|0|0|0|0|0|0|0|0|0|0|0|0|0|0|0|0|0|0,8.221183333333334,training_trials,2
419,,16590,41,all|most|some|none,all|most|some|none,right|wrong,5,,high,placeholder,Graduated College,1575197419945,placeholder,10,female,english,597889de37978a00016b3664,Describe these results of <strong>Green Valley</strong> so as to make it appear as if there is a <strong>high</strong> success rate without lying.,most|most|right,9|9|3|3|3,In this exam,of the students got,of the questions,.,12,"%{""instances"" => [%{""n_col"" => 12, ""rows"" => [9, 9, 3, 3, 3]}], ""number"" => 12, ""sequence"" => [""BCCCC"", ""BBCCC""], ""truth_table"" => []}",Sun Dec 01 2019 10:42:06 GMT+0000 (GMT Standard Time),1575196926674,1|1|1|1|1|1|1|1|1|0|0|0|1|1|1|1|1|1|1|1|1|0|0|0|1|1|1|0|0|0|0|0|0|0|0|0|1|1|1|0|0|0|0|0|0|0|0|0|1|1|1|0|0|0|0|0|0|0|0|0,8.221183333333334,training_trials,3
419,,35487,41,all|most|some|none,all|most|some|none,right|wrong,5,,low,placeholder,Graduated College,1575197419945,placeholder,10,female,english,597889de37978a00016b3664,Describe these results of <strong>Riverside</strong> so as to make it appear as if there is a <strong>low</strong> success rate without lying.,most|most|wrong,9|9|3|3|3,In this exam,of the students got,of the questions,.,12,"%{""instances"" => [%{""n_col"" => 12, ""rows"" => [9, 9, 3, 3, 3]}], ""number"" => 12, ""sequence"" => [""BCCCC"", ""BBCCC""], ""truth_table"" => []}",Sun Dec 01 2019 10:42:06 GMT+0000 (GMT Standard Time),1575196926674,1|1|1|1|1|1|1|1|1|0|0|0|1|1|1|1|1|1|1|1|1|0|0|0|1|1|1|0|0|0|0|0|0|0|0|0|1|1|1|0|0|0|0|0|0|0|0|0|1|1|1|0|0|0|0|0|0|0|0|0,8.221183333333334,training_trials,4
419,,12330,41,all|most|some|none,all|most|some|none,right|wrong,5,,low,placeholder,Graduated College,1575197419945,placeholder,10,female,english,597889de37978a00016b3664,Describe these results of <strong>Riverside</strong> so as to make it appear as if there is a <strong>low</strong> success rate without lying.,most|most|wrong,9|9|3|3|3,In this exam,of the students got,of the questions,.,12,"%{""instances"" => [%{""n_col"" => 12, ""rows"" => [9, 9, 3, 3, 3]}], ""number"" => 12, ""sequence"" => [""BCCCC"", ""BBCCC""], ""truth_table"" => []}",Sun Dec 01 2019 10:42:06 GMT+0000 (GMT Standard Time),1575196926674,1|1|1|1|1|1|1|1|1|0|0|0|1|1|1|1|1|1|1|1|1|0|0|0|1|1|1|0|0|0|0|0|0|0|0|0|1|1|1|0|0|0|0|0|0|0|0|0|1|1|1|0|0|0|0|0|0|0|0|0,8.221183333333334,main_trials,1
419,,10632,41,all|most|some|none,all|most|some|none,right|wrong,5,,low,placeholder,Graduated College,1575197419945,placeholder,10,female,english,597889de37978a00016b3664,Describe these results of <strong>Riverside</strong> so as to make it appear as if there is a <strong>low</strong> success rate without lying.,most|all|wrong,9|9|0|0|0,In this exam,of the students got,of the questions,.,3,"%{""instances"" => [%{""n_col"" => 12, ""rows"" => [9, 9, 0, 0, 0]}], ""number"" => 3, ""sequence"" => [""BDDDD"", ""BBDDD"", ""BCDDD""], ""truth_table"" => []}",Sun Dec 01 2019 10:42:06 GMT+0000 (GMT Standard Time),1575196926674,1|1|1|1|1|1|1|1|1|0|0|0|1|1|1|1|1|1|1|1|1|0|0|0|0|0|0|0|0|0|0|0|0|0|0|0|0|0|0|0|0|0|0|0|0|0|0|0|0|0|0|0|0|0|0|0|0|0|0|0,8.221183333333334,main_trials,2
419,,10589,41,all|most|some|none,all|most|some|none,right|wrong,5,,low,placeholder,Graduated College,1575197419945,placeholder,10,female,english,597889de37978a00016b3664,Describe these results of <strong>Riverside</strong> so as to make it appear as if there is a <strong>low</strong> success rate without lying.,some|some|wrong,12|12|9|3|3,In this exam,of the students got,of the questions,.,15,"%{""instances"" => [%{""n_col"" => 12, ""rows"" => [12, 12, 9, 3, 3]}], ""number"" => 15, ""sequence"" => [""ABBBC"", ""ABBCC"", ""AABCC"", ""AABBC""], ""truth_table"" => []}",Sun Dec 01 2019 10:42:06 GMT+0000 (GMT Standard Time),1575196926674,1|1|1|1|1|1|1|1|1|1|1|1|1|1|1|1|1|1|1|1|1|1|1|1|1|1|1|1|1|1|1|1|1|0|0|0|1|1|1|0|0|0|0|0|0|0|0|0|1|1|1|0|0|0|0|0|0|0|0|0,8.221183333333334,main_trials,3
419,,10998,41,all|most|some|none,all|most|some|none,right|wrong,5,,high,placeholder,Graduated College,1575197419945,placeholder,10,female,english,597889de37978a00016b3664,Describe these results of <strong>Green Valley</strong> so as to make it appear as if there is a <strong>high</strong> success rate without lying.,all|most|right,12|12|12|9|9,In this exam,of the students got,of the questions,.,19,"%{""instances"" => [%{""n_col"" => 12, ""rows"" => '\f\f\f\t\t'}], ""number"" => 19, ""sequence"" => [""AAABB"", ""AAAAB""], ""truth_table"" => []}",Sun Dec 01 2019 10:42:06 GMT+0000 (GMT Standard Time),1575196926674,1|1|1|1|1|1|1|1|1|1|1|1|1|1|1|1|1|1|1|1|1|1|1|1|1|1|1|1|1|1|1|1|1|1|1|1|1|1|1|1|1|1|1|1|1|0|0|0|1|1|1|1|1|1|1|1|1|0|0|0,8.221183333333334,main_trials,4
419,,11147,41,all|most|some|none,all|most|some|none,right|wrong,5,,high,placeholder,Graduated College,1575197419945,placeholder,10,female,english,597889de37978a00016b3664,Describe these results of <strong>Green Valley</strong> so as to make it appear as if there is a <strong>high</strong> success rate without lying.,most|most|right,9|9|9|0|0,In this exam,of the students got,of the questions,.,7,"%{""instances"" => [%{""n_col"" => 12, ""rows"" => [9, 9, 9, 0, 0]}], ""number"" => 7, ""sequence"" => [""BBBDD"", ""BBBBD"", ""BBBCD""], ""truth_table"" => []}",Sun Dec 01 2019 10:42:06 GMT+0000 (GMT Standard Time),1575196926674,1|1|1|1|1|1|1|1|1|0|0|0|1|1|1|1|1|1|1|1|1|0|0|0|1|1|1|1|1|1|1|1|1|0|0|0|0|0|0|0|0|0|0|0|0|0|0|0|0|0|0|0|0|0|0|0|0|0|0|0,8.221183333333334,main_trials,5
419,,8484,41,all|most|some|none,all|most|some|none,right|wrong,5,,low,placeholder,Graduated College,1575197419945,placeholder,10,female,english,597889de37978a00016b3664,Describe these results of <strong>Riverside</strong> so as to make it appear as if there is a <strong>low</strong> success rate without lying.,most|all|wrong,3|3|0|0|0,In this exam,of the students got,of the questions,.,2,"%{""instances"" => [%{""n_col"" => 12, ""rows"" => [3, 3, 0, 0, 0]}], ""number"" => 2, ""sequence"" => [""CDDDD"", ""CCDDD""], ""truth_table"" => []}",Sun Dec 01 2019 10:42:06 GMT+0000 (GMT Standard Time),1575196926674,1|1|1|0|0|0|0|0|0|0|0|0|1|1|1|0|0|0|0|0|0|0|0|0|0|0|0|0|0|0|0|0|0|0|0|0|0|0|0|0|0|0|0|0|0|0|0|0|0|0|0|0|0|0|0|0|0|0|0|0,8.221183333333334,main_trials,6
419,,24322,41,all|most|some|none,all|most|some|none,right|wrong,5,,high,placeholder,Graduated College,1575197419945,placeholder,10,female,english,597889de37978a00016b3664,Describe these results of <strong>Green Valley</strong> so as to make it appear as if there is a <strong>high</strong> success rate without lying.,some|some|right,3|3|3|0|0,In this exam,of the students got,of the questions,.,5,"%{""instances"" => [%{""n_col"" => 12, ""rows"" => [3, 3, 3, 0, 0]}], ""number"" => 5, ""sequence"" => [""CCCDD"", ""CCCCD""], ""truth_table"" => []}",Sun Dec 01 2019 10:42:06 GMT+0000 (GMT Standard Time),1575196926674,1|1|1|0|0|0|0|0|0|0|0|0|1|1|1|0|0|0|0|0|0|0|0|0|1|1|1|0|0|0|0|0|0|0|0|0|0|0|0|0|0|0|0|0|0|0|0|0|0|0|0|0|0|0|0|0|0|0|0|0,8.221183333333334,main_trials,7
419,,10480,41,all|most|some|none,all|most|some|none,right|wrong,5,,low,placeholder,Graduated College,1575197419945,placeholder,10,female,english,597889de37978a00016b3664,Describe these results of <strong>Riverside</strong> so as to make it appear as if there is a <strong>low</strong> success rate without lying.,all|all|wrong,0|0|0|0|0,In this exam,of the students got,of the questions,.,10,"%{""instances"" => [%{""n_col"" => 12, ""rows"" => [0, 0, 0, 0, 0]}], ""number"" => 10, ""sequence"" => [""DDDDD""], ""truth_table"" => []}",Sun Dec 01 2019 10:42:06 GMT+0000 (GMT Standard Time),1575196926674,0|0|0|0|0|0|0|0|0|0|0|0|0|0|0|0|0|0|0|0|0|0|0|0|0|0|0|0|0|0|0|0|0|0|0|0|0|0|0|0|0|0|0|0|0|0|0|0|0|0|0|0|0|0|0|0|0|0|0|0,8.221183333333334,main_trials,8
419,,10451,41,all|most|some|none,all|most|some|none,right|wrong,5,,high,placeholder,Graduated College,1575197419945,placeholder,10,female,english,597889de37978a00016b3664,Describe these results of <strong>Green Valley</strong> so as to make it appear as if there is a <strong>high</strong> success rate without lying.,some|all|right,12|12|3|3|3,In this exam,of the students got,of the questions,.,13,"%{""instances"" => [%{""n_col"" => 12, ""rows"" => [12, 12, 3, 3, 3]}], ""number"" => 13, ""sequence"" => [""ACCCC"", ""AACCC"", ""ABCCC""], ""truth_table"" => []}",Sun Dec 01 2019 10:42:06 GMT+0000 (GMT Standard Time),1575196926674,1|1|1|1|1|1|1|1|1|1|1|1|1|1|1|1|1|1|1|1|1|1|1|1|1|1|1|0|0|0|0|0|0|0|0|0|1|1|1|0|0|0|0|0|0|0|0|0|1|1|1|0|0|0|0|0|0|0|0|0,8.221183333333334,main_trials,9
419,,11340,41,all|most|some|none,all|most|some|none,right|wrong,5,,high,placeholder,Graduated College,1575197419945,placeholder,10,female,english,597889de37978a00016b3664,Describe these results of <strong>Green Valley</strong> so as to make it appear as if there is a <strong>high</strong> success rate without lying.,most|most|right,12|12|9|0|0,In this exam,of the students got,of the questions,.,8,"%{""instances"" => [%{""n_col"" => 12, ""rows"" => [12, 12, 9, 0, 0]}], ""number"" => 8, ""sequence"" => [""ABBBD"", ""ABBDD"", ""AABDD"", ""ABBBD"", ""ABBCD"", ""AABCD""], ""truth_table"" => []}",Sun Dec 01 2019 10:42:06 GMT+0000 (GMT Standard Time),1575196926674,1|1|1|1|1|1|1|1|1|1|1|1|1|1|1|1|1|1|1|1|1|1|1|1|1|1|1|1|1|1|1|1|1|0|0|0|0|0|0|0|0|0|0|0|0|0|0|0|0|0|0|0|0|0|0|0|0|0|0|0,8.221183333333334,main_trials,10
419,,10647,41,all|most|some|none,all|most|some|none,right|wrong,5,,low,placeholder,Graduated College,1575197419945,placeholder,10,female,english,597889de37978a00016b3664,Describe these results of <strong>Riverside</strong> so as to make it appear as if there is a <strong>low</strong> success rate without lying.,none|all|right,9|9|9|9|9,In this exam,of the students got,of the questions,.,17,"%{""instances"" => [%{""n_col"" => 12, ""rows"" => '\t\t\t\t\t'}], ""number"" => 17, ""sequence"" => [""BBBBB""], ""truth_table"" => []}",Sun Dec 01 2019 10:42:06 GMT+0000 (GMT Standard Time),1575196926674,1|1|1|1|1|1|1|1|1|0|0|0|1|1|1|1|1|1|1|1|1|0|0|0|1|1|1|1|1|1|1|1|1|0|0|0|1|1|1|1|1|1|1|1|1|0|0|0|1|1|1|1|1|1|1|1|1|0|0|0,8.221183333333334,main_trials,11
419,,8851,41,all|most|some|none,all|most|some|none,right|wrong,5,,low,placeholder,Graduated College,1575197419945,placeholder,10,female,english,597889de37978a00016b3664,Describe these results of <strong>Riverside</strong> so as to make it appear as if there is a <strong>low</strong> success rate without lying.,most|all|wrong,12|12|0|0|0,In this exam,of the students got,of the questions,.,4,"%{""instances"" => [%{""n_col"" => 12, ""rows"" => [12, 12, 0, 0, 0]}], ""number"" => 4, ""sequence"" => [""ADDDD"", ""AADDD"", ""ABDDD"", ""ACDDD""], ""truth_table"" => []}",Sun Dec 01 2019 10:42:06 GMT+0000 (GMT Standard Time),1575196926674,1|1|1|1|1|1|1|1|1|1|1|1|1|1|1|1|1|1|1|1|1|1|1|1|0|0|0|0|0|0|0|0|0|0|0|0|0|0|0|0|0|0|0|0|0|0|0|0|0|0|0|0|0|0|0|0|0|0|0|0,8.221183333333334,main_trials,12
419,,12303,41,all|most|some|none,all|most|some|none,right|wrong,5,,low,placeholder,Graduated College,1575197419945,placeholder,10,female,english,597889de37978a00016b3664,Describe these results of <strong>Riverside</strong> so as to make it appear as if there is a <strong>low</strong> success rate without lying.,most|most|wrong,9|9|3|0|0,In this exam,of the students got,of the questions,.,6,"%{""instances"" => [%{""n_col"" => 12, ""rows"" => [9, 9, 3, 0, 0]}], ""number"" => 6, ""sequence"" => [""BCCCD"", ""BCCDD"", ""BBCDD"", ""BBCCD""], ""truth_table"" => []}",Sun Dec 01 2019 10:42:06 GMT+0000 (GMT Standard Time),1575196926674,1|1|1|1|1|1|1|1|1|0|0|0|1|1|1|1|1|1|1|1|1|0|0|0|1|1|1|0|0|0|0|0|0|0|0|0|0|0|0|0|0|0|0|0|0|0|0|0|0|0|0|0|0|0|0|0|0|0|0|0,8.221183333333334,main_trials,13
419,,10661,41,all|most|some|none,all|most|some|none,right|wrong,5,,high,placeholder,Graduated College,1575197419945,placeholder,10,female,english,597889de37978a00016b3664,Describe these results of <strong>Green Valley</strong> so as to make it appear as if there is a <strong>high</strong> success rate without lying.,most|all|right,12|12|12|0|0,In this exam,of the students got,of the questions,.,9,"%{""instances"" => [%{""n_col"" => 12, ""rows"" => [12, 12, 12, 0, 0]}], ""number"" => 9, ""sequence"" => [""AAADD"", ""AAAAD"", ""AAABD"", ""AAACD""], ""truth_table"" => []}",Sun Dec 01 2019 10:42:06 GMT+0000 (GMT Standard Time),1575196926674,1|1|1|1|1|1|1|1|1|1|1|1|1|1|1|1|1|1|1|1|1|1|1|1|1|1|1|1|1|1|1|1|1|1|1|1|0|0|0|0|0|0|0|0|0|0|0|0|0|0|0|0|0|0|0|0|0|0|0|0,8.221183333333334,main_trials,14
419,,10879,41,all|most|some|none,all|most|some|none,right|wrong,5,,low,placeholder,Graduated College,1575197419945,placeholder,10,female,english,597889de37978a00016b3664,Describe these results of <strong>Riverside</strong> so as to make it appear as if there is a <strong>low</strong> success rate without lying.,most|all|wrong,12|12|3|0|0,In this exam,of the students got,of the questions,.,1,"%{""instances"" => [%{""n_col"" => 12, ""rows"" => [12, 12, 3, 0, 0]}], ""number"" => 1, ""sequence"" => [""ACCCD"", ""ACCDD"", ""AACDD"", ""AACCD"", ""ABCDD"", ""ABCCD""], ""truth_table"" => []}",Sun Dec 01 2019 10:42:06 GMT+0000 (GMT Standard Time),1575196926674,1|1|1|1|1|1|1|1|1|1|1|1|1|1|1|1|1|1|1|1|1|1|1|1|1|1|1|0|0|0|0|0|0|0|0|0|0|0|0|0|0|0|0|0|0|0|0|0|0|0|0|0|0|0|0|0|0|0|0|0,8.221183333333334,main_trials,15
419,,24143,41,all|most|some|none,all|most|some|none,right|wrong,5,,high,placeholder,Graduated College,1575197419945,placeholder,10,female,english,597889de37978a00016b3664,Describe these results of <strong>Green Valley</strong> so as to make it appear as if there is a <strong>high</strong> success rate without lying.,most|most|right,9|9|9|3|3,In this exam,of the students got,of the questions,.,14,"%{""instances"" => [%{""n_col"" => 12, ""rows"" => [9, 9, 9, 3, 3]}], ""number"" => 14, ""sequence"" => [""BBBCC"", ""BBBBC""], ""truth_table"" => []}",Sun Dec 01 2019 10:42:06 GMT+0000 (GMT Standard Time),1575196926674,1|1|1|1|1|1|1|1|1|0|0|0|1|1|1|1|1|1|1|1|1|0|0|0|1|1|1|1|1|1|1|1|1|0|0|0|1|1|1|0|0|0|0|0|0|0|0|0|1|1|1|0|0|0|0|0|0|0|0|0,8.221183333333334,main_trials,16
419,,8475,41,all|most|some|none,all|most|some|none,right|wrong,5,,low,placeholder,Graduated College,1575197419945,placeholder,10,female,english,597889de37978a00016b3664,Describe these results of <strong>Riverside</strong> so as to make it appear as if there is a <strong>low</strong> success rate without lying.,all|all|right,12|12|12|12|12,In this exam,of the students got,of the questions,.,20,"%{""instances"" => [%{""n_col"" => 12, ""rows"" => '\f\f\f\f\f'}], ""number"" => 20, ""sequence"" => [""AAAAA""], ""truth_table"" => []}",Sun Dec 01 2019 10:42:06 GMT+0000 (GMT Standard Time),1575196926674,1|1|1|1|1|1|1|1|1|1|1|1|1|1|1|1|1|1|1|1|1|1|1|1|1|1|1|1|1|1|1|1|1|1|1|1|1|1|1|1|1|1|1|1|1|1|1|1|1|1|1|1|1|1|1|1|1|1|1|1,8.221183333333334,main_trials,17
419,,55668,41,all|most|some|none,all|most|some|none,right|wrong,5,,high,placeholder,Graduated College,1575197419945,placeholder,10,female,english,597889de37978a00016b3664,Describe these results of <strong>Green Valley</strong> so as to make it appear as if there is a <strong>high</strong> success rate without lying.,all|some|right,3|3|3|3|3,In this exam,of the students got,of the questions,.,11,"%{""instances"" => [%{""n_col"" => 12, ""rows"" => [3, 3, 3, 3, 3]}], ""number"" => 11, ""sequence"" => [""CCCCC""], ""truth_table"" => []}",Sun Dec 01 2019 10:42:06 GMT+0000 (GMT Standard Time),1575196926674,1|1|1|0|0|0|0|0|0|0|0|0|1|1|1|0|0|0|0|0|0|0|0|0|1|1|1|0|0|0|0|0|0|0|0|0|1|1|1|0|0|0|0|0|0|0|0|0|1|1|1|0|0|0|0|0|0|0|0|0,8.221183333333334,main_trials,18
419,,7653,41,all|most|some|none,all|most|some|none,right|wrong,5,,high,placeholder,Graduated College,1575197419945,placeholder,10,female,english,597889de37978a00016b3664,Describe these results of <strong>Green Valley</strong> so as to make it appear as if there is a <strong>high</strong> success rate without lying.,most|most|right,12|12|12|3|3,In this exam,of the students got,of the questions,.,16,"%{""instances"" => [%{""n_col"" => 12, ""rows"" => [12, 12, 12, 3, 3]}], ""number"" => 16, ""sequence"" => [""AAACC"", ""AAAAC"", ""AAABC""], ""truth_table"" => []}",Sun Dec 01 2019 10:42:06 GMT+0000 (GMT Standard Time),1575196926674,1|1|1|1|1|1|1|1|1|1|1|1|1|1|1|1|1|1|1|1|1|1|1|1|1|1|1|1|1|1|1|1|1|1|1|1|1|1|1|0|0|0|0|0|0|0|0|0|1|1|1|0|0|0|0|0|0|0|0|0,8.221183333333334,main_trials,19
419,,11269,41,all|most|some|none,all|most|some|none,right|wrong,5,,high,placeholder,Graduated College,1575197419945,placeholder,10,female,english,597889de37978a00016b3664,Describe these results of <strong>Green Valley</strong> so as to make it appear as if there is a <strong>high</strong> success rate without lying.,most|most|right,12|12|9|9|9,In this exam,of the students got,of the questions,.,18,"%{""instances"" => [%{""n_col"" => 12, ""rows"" => '\f\f\t\t\t'}], ""number"" => 18, ""sequence"" => [""ABBBB"", ""AABBB""], ""truth_table"" => []}",Sun Dec 01 2019 10:42:06 GMT+0000 (GMT Standard Time),1575196926674,1|1|1|1|1|1|1|1|1|1|1|1|1|1|1|1|1|1|1|1|1|1|1|1|1|1|1|1|1|1|1|1|1|0|0|0|1|1|1|1|1|1|1|1|1|0|0|0|1|1|1|1|1|1|1|1|1|0|0|0,8.221183333333334,main_trials,20
418,,56933,19,all|most|some|none,all|most|some|none,right|wrong,5,,high,placeholder,Graduated High School,1575197379282,placeholder,10,male,English ,5c9a001bca9d1f00109d04e7,Describe these results of <strong>Green Valley</strong> so as to make it appear as if there is a <strong>high</strong> success rate without lying.,some|most|right,12|12|0|0|0,In this exam,of the students got,of the questions,.,4,"%{""instances"" => [%{""n_col"" => 12, ""rows"" => [12, 12, 0, 0, 0]}], ""number"" => 4, ""sequence"" => [""ADDDD"", ""AADDD"", ""ABDDD"", ""ACDDD""], ""truth_table"" => []}",Sun Dec 01 2019 10:40:17 GMT+0000 (GMT),1575196817265,1|1|1|1|1|1|1|1|1|1|1|1|1|1|1|1|1|1|1|1|1|1|1|1|0|0|0|0|0|0|0|0|0|0|0|0|0|0|0|0|0|0|0|0|0|0|0|0|0|0|0|0|0|0|0|0|0|0|0|0,9.36695,training_trials,1
418,,16745,19,all|most|some|none,all|most|some|none,right|wrong,5,,low,placeholder,Graduated High School,1575197379282,placeholder,10,male,English ,5c9a001bca9d1f00109d04e7,Describe these results of <strong>Riverside</strong> so as to make it appear as if there is a <strong>low</strong> success rate without lying.,most|most|wrong,12|12|0|0|0,In this exam,of the students got,of the questions,.,4,"%{""instances"" => [%{""n_col"" => 12, ""rows"" => [12, 12, 0, 0, 0]}], ""number"" => 4, ""sequence"" => [""ADDDD"", ""AADDD"", ""ABDDD"", ""ACDDD""], ""truth_table"" => []}",Sun Dec 01 2019 10:40:17 GMT+0000 (GMT),1575196817265,1|1|1|1|1|1|1|1|1|1|1|1|1|1|1|1|1|1|1|1|1|1|1|1|0|0|0|0|0|0|0|0|0|0|0|0|0|0|0|0|0|0|0|0|0|0|0|0|0|0|0|0|0|0|0|0|0|0|0|0,9.36695,training_trials,2
418,,39869,19,all|most|some|none,all|most|some|none,right|wrong,5,,high,placeholder,Graduated High School,1575197379282,placeholder,10,male,English ,5c9a001bca9d1f00109d04e7,Describe these results of <strong>Green Valley</strong> so as to make it appear as if there is a <strong>high</strong> success rate without lying.,all|most|right,9|9|3|3|3,In this exam,of the students got,of the questions,.,12,"%{""instances"" => [%{""n_col"" => 12, ""rows"" => [9, 9, 3, 3, 3]}], ""number"" => 12, ""sequence"" => [""BCCCC"", ""BBCCC""], ""truth_table"" => []}",Sun Dec 01 2019 10:40:17 GMT+0000 (GMT),1575196817265,1|1|1|1|1|1|1|1|1|0|0|0|1|1|1|1|1|1|1|1|1|0|0|0|1|1|1|0|0|0|0|0|0|0|0|0|1|1|1|0|0|0|0|0|0|0|0|0|1|1|1|0|0|0|0|0|0|0|0|0,9.36695,training_trials,3
418,,16130,19,all|most|some|none,all|most|some|none,right|wrong,5,,low,placeholder,Graduated High School,1575197379282,placeholder,10,male,English ,5c9a001bca9d1f00109d04e7,Describe these results of <strong>Riverside</strong> so as to make it appear as if there is a <strong>low</strong> success rate without lying.,all|some|wrong,9|9|3|3|3,In this exam,of the students got,of the questions,.,12,"%{""instances"" => [%{""n_col"" => 12, ""rows"" => [9, 9, 3, 3, 3]}], ""number"" => 12, ""sequence"" => [""BCCCC"", ""BBCCC""], ""truth_table"" => []}",Sun Dec 01 2019 10:40:17 GMT+0000 (GMT),1575196817265,1|1|1|1|1|1|1|1|1|0|0|0|1|1|1|1|1|1|1|1|1|0|0|0|1|1|1|0|0|0|0|0|0|0|0|0|1|1|1|0|0|0|0|0|0|0|0|0|1|1|1|0|0|0|0|0|0|0|0|0,9.36695,training_trials,4
418,,14924,19,all|most|some|none,all|most|some|none,right|wrong,5,,low,placeholder,Graduated High School,1575197379282,placeholder,10,male,English ,5c9a001bca9d1f00109d04e7,Describe these results of <strong>Riverside</strong> so as to make it appear as if there is a <strong>low</strong> success rate without lying.,some|most|wrong,12|12|3|0|0,In this exam,of the students got,of the questions,.,1,"%{""instances"" => [%{""n_col"" => 12, ""rows"" => [12, 12, 3, 0, 0]}], ""number"" => 1, ""sequence"" => [""ACCCD"", ""ACCDD"", ""AACDD"", ""AACCD"", ""ABCDD"", ""ABCCD""], ""truth_table"" => []}",Sun Dec 01 2019 10:40:17 GMT+0000 (GMT),1575196817265,1|1|1|1|1|1|1|1|1|1|1|1|1|1|1|1|1|1|1|1|1|1|1|1|1|1|1|0|0|0|0|0|0|0|0|0|0|0|0|0|0|0|0|0|0|0|0|0|0|0|0|0|0|0|0|0|0|0|0|0,9.36695,main_trials,1
418,,30600,19,all|most|some|none,all|most|some|none,right|wrong,5,,high,placeholder,Graduated High School,1575197379282,placeholder,10,male,English ,5c9a001bca9d1f00109d04e7,Describe these results of <strong>Green Valley</strong> so as to make it appear as if there is a <strong>high</strong> success rate without lying.,all|none|right,0|0|0|0|0,In this exam,of the students got,of the questions,.,10,"%{""instances"" => [%{""n_col"" => 12, ""rows"" => [0, 0, 0, 0, 0]}], ""number"" => 10, ""sequence"" => [""DDDDD""], ""truth_table"" => []}",Sun Dec 01 2019 10:40:17 GMT+0000 (GMT),1575196817265,0|0|0|0|0|0|0|0|0|0|0|0|0|0|0|0|0|0|0|0|0|0|0|0|0|0|0|0|0|0|0|0|0|0|0|0|0|0|0|0|0|0|0|0|0|0|0|0|0|0|0|0|0|0|0|0|0|0|0|0,9.36695,main_trials,2
418,,14038,19,all|most|some|none,all|most|some|none,right|wrong,5,,high,placeholder,Graduated High School,1575197379282,placeholder,10,male,English ,5c9a001bca9d1f00109d04e7,Describe these results of <strong>Green Valley</strong> so as to make it appear as if there is a <strong>high</strong> success rate without lying.,all|most|right,12|12|9|3|3,In this exam,of the students got,of the questions,.,15,"%{""instances"" => [%{""n_col"" => 12, ""rows"" => [12, 12, 9, 3, 3]}], ""number"" => 15, ""sequence"" => [""ABBBC"", ""ABBCC"", ""AABCC"", ""AABBC""], ""truth_table"" => []}",Sun Dec 01 2019 10:40:17 GMT+0000 (GMT),1575196817265,1|1|1|1|1|1|1|1|1|1|1|1|1|1|1|1|1|1|1|1|1|1|1|1|1|1|1|1|1|1|1|1|1|0|0|0|1|1|1|0|0|0|0|0|0|0|0|0|1|1|1|0|0|0|0|0|0|0|0|0,9.36695,main_trials,3
418,,13073,19,all|most|some|none,all|most|some|none,right|wrong,5,,high,placeholder,Graduated High School,1575197379282,placeholder,10,male,English ,5c9a001bca9d1f00109d04e7,Describe these results of <strong>Green Valley</strong> so as to make it appear as if there is a <strong>high</strong> success rate without lying.,most|most|right,12|12|9|0|0,In this exam,of the students got,of the questions,.,8,"%{""instances"" => [%{""n_col"" => 12, ""rows"" => [12, 12, 9, 0, 0]}], ""number"" => 8, ""sequence"" => [""ABBBD"", ""ABBDD"", ""AABDD"", ""ABBBD"", ""ABBCD"", ""AABCD""], ""truth_table"" => []}",Sun Dec 01 2019 10:40:17 GMT+0000 (GMT),1575196817265,1|1|1|1|1|1|1|1|1|1|1|1|1|1|1|1|1|1|1|1|1|1|1|1|1|1|1|1|1|1|1|1|1|0|0|0|0|0|0|0|0|0|0|0|0|0|0|0|0|0|0|0|0|0|0|0|0|0|0|0,9.36695,main_trials,4
418,,22251,19,all|most|some|none,all|most|some|none,right|wrong,5,,high,placeholder,Graduated High School,1575197379282,placeholder,10,male,English ,5c9a001bca9d1f00109d04e7,Describe these results of <strong>Green Valley</strong> so as to make it appear as if there is a <strong>high</strong> success rate without lying.,some|some|wrong,9|9|3|0|0,In this exam,of the students got,of the questions,.,6,"%{""instances"" => [%{""n_col"" => 12, ""rows"" => [9, 9, 3, 0, 0]}], ""number"" => 6, ""sequence"" => [""BCCCD"", ""BCCDD"", ""BBCDD"", ""BBCCD""], ""truth_table"" => []}",Sun Dec 01 2019 10:40:17 GMT+0000 (GMT),1575196817265,1|1|1|1|1|1|1|1|1|0|0|0|1|1|1|1|1|1|1|1|1|0|0|0|1|1|1|0|0|0|0|0|0|0|0|0|0|0|0|0|0|0|0|0|0|0|0|0|0|0|0|0|0|0|0|0|0|0|0|0,9.36695,main_trials,5
418,,11543,19,all|most|some|none,all|most|some|none,right|wrong,5,,low,placeholder,Graduated High School,1575197379282,placeholder,10,male,English ,5c9a001bca9d1f00109d04e7,Describe these results of <strong>Riverside</strong> so as to make it appear as if there is a <strong>low</strong> success rate without lying.,all|some|wrong,9|9|0|0|0,In this exam,of the students got,of the questions,.,3,"%{""instances"" => [%{""n_col"" => 12, ""rows"" => [9, 9, 0, 0, 0]}], ""number"" => 3, ""sequence"" => [""BDDDD"", ""BBDDD"", ""BCDDD""], ""truth_table"" => []}",Sun Dec 01 2019 10:40:17 GMT+0000 (GMT),1575196817265,1|1|1|1|1|1|1|1|1|0|0|0|1|1|1|1|1|1|1|1|1|0|0|0|0|0|0|0|0|0|0|0|0|0|0|0|0|0|0|0|0|0|0|0|0|0|0|0|0|0|0|0|0|0|0|0|0|0|0|0,9.36695,main_trials,6
418,,13297,19,all|most|some|none,all|most|some|none,right|wrong,5,,low,placeholder,Graduated High School,1575197379282,placeholder,10,male,English ,5c9a001bca9d1f00109d04e7,Describe these results of <strong>Riverside</strong> so as to make it appear as if there is a <strong>low</strong> success rate without lying.,all|most|wrong,9|9|3|3|3,In this exam,of the students got,of the questions,.,12,"%{""instances"" => [%{""n_col"" => 12, ""rows"" => [9, 9, 3, 3, 3]}], ""number"" => 12, ""sequence"" => [""BCCCC"", ""BBCCC""], ""truth_table"" => []}",Sun Dec 01 2019 10:40:17 GMT+0000 (GMT),1575196817265,1|1|1|1|1|1|1|1|1|0|0|0|1|1|1|1|1|1|1|1|1|0|0|0|1|1|1|0|0|0|0|0|0|0|0|0|1|1|1|0|0|0|0|0|0|0|0|0|1|1|1|0|0|0|0|0|0|0|0|0,9.36695,main_trials,7
418,,7537,19,all|most|some|none,all|most|some|none,right|wrong,5,,low,placeholder,Graduated High School,1575197379282,placeholder,10,male,English ,5c9a001bca9d1f00109d04e7,Describe these results of <strong>Riverside</strong> so as to make it appear as if there is a <strong>low</strong> success rate without lying.,all|most|wrong,3|3|3|3|3,In this exam,of the students got,of the questions,.,11,"%{""instances"" => [%{""n_col"" => 12, ""rows"" => [3, 3, 3, 3, 3]}], ""number"" => 11, ""sequence"" => [""CCCCC""], ""truth_table"" => []}",Sun Dec 01 2019 10:40:17 GMT+0000 (GMT),1575196817265,1|1|1|0|0|0|0|0|0|0|0|0|1|1|1|0|0|0|0|0|0|0|0|0|1|1|1|0|0|0|0|0|0|0|0|0|1|1|1|0|0|0|0|0|0|0|0|0|1|1|1|0|0|0|0|0|0|0|0|0,9.36695,main_trials,8
418,,34556,19,all|most|some|none,all|most|some|none,right|wrong,5,,low,placeholder,Graduated High School,1575197379282,placeholder,10,male,English ,5c9a001bca9d1f00109d04e7,Describe these results of <strong>Riverside</strong> so as to make it appear as if there is a <strong>low</strong> success rate without lying.,some|some|right,12|12|12|9|9,In this exam,of the students got,of the questions,.,19,"%{""instances"" => [%{""n_col"" => 12, ""rows"" => '\f\f\f\t\t'}], ""number"" => 19, ""sequence"" => [""AAABB"", ""AAAAB""], ""truth_table"" => []}",Sun Dec 01 2019 10:40:17 GMT+0000 (GMT),1575196817265,1|1|1|1|1|1|1|1|1|1|1|1|1|1|1|1|1|1|1|1|1|1|1|1|1|1|1|1|1|1|1|1|1|1|1|1|1|1|1|1|1|1|1|1|1|0|0|0|1|1|1|1|1|1|1|1|1|0|0|0,9.36695,main_trials,9
418,,8363,19,all|most|some|none,all|most|some|none,right|wrong,5,,high,placeholder,Graduated High School,1575197379282,placeholder,10,male,English ,5c9a001bca9d1f00109d04e7,Describe these results of <strong>Green Valley</strong> so as to make it appear as if there is a <strong>high</strong> success rate without lying.,all|most|right,12|12|9|9|9,In this exam,of the students got,of the questions,.,18,"%{""instances"" => [%{""n_col"" => 12, ""rows"" => '\f\f\t\t\t'}], ""number"" => 18, ""sequence"" => [""ABBBB"", ""AABBB""], ""truth_table"" => []}",Sun Dec 01 2019 10:40:17 GMT+0000 (GMT),1575196817265,1|1|1|1|1|1|1|1|1|1|1|1|1|1|1|1|1|1|1|1|1|1|1|1|1|1|1|1|1|1|1|1|1|0|0|0|1|1|1|1|1|1|1|1|1|0|0|0|1|1|1|1|1|1|1|1|1|0|0|0,9.36695,main_trials,10
418,,6712,19,all|most|some|none,all|most|some|none,right|wrong,5,,low,placeholder,Graduated High School,1575197379282,placeholder,10,male,English ,5c9a001bca9d1f00109d04e7,Describe these results of <strong>Riverside</strong> so as to make it appear as if there is a <strong>low</strong> success rate without lying.,all|most|wrong,3|3|0|0|0,In this exam,of the students got,of the questions,.,2,"%{""instances"" => [%{""n_col"" => 12, ""rows"" => [3, 3, 0, 0, 0]}], ""number"" => 2, ""sequence"" => [""CDDDD"", ""CCDDD""], ""truth_table"" => []}",Sun Dec 01 2019 10:40:17 GMT+0000 (GMT),1575196817265,1|1|1|0|0|0|0|0|0|0|0|0|1|1|1|0|0|0|0|0|0|0|0|0|0|0|0|0|0|0|0|0|0|0|0|0|0|0|0|0|0|0|0|0|0|0|0|0|0|0|0|0|0|0|0|0|0|0|0|0,9.36695,main_trials,11
418,,8093,19,all|most|some|none,all|most|some|none,right|wrong,5,,high,placeholder,Graduated High School,1575197379282,placeholder,10,male,English ,5c9a001bca9d1f00109d04e7,Describe these results of <strong>Green Valley</strong> so as to make it appear as if there is a <strong>high</strong> success rate without lying.,all|most|right,12|12|3|3|3,In this exam,of the students got,of the questions,.,13,"%{""instances"" => [%{""n_col"" => 12, ""rows"" => [12, 12, 3, 3, 3]}], ""number"" => 13, ""sequence"" => [""ACCCC"", ""AACCC"", ""ABCCC""], ""truth_table"" => []}",Sun Dec 01 2019 10:40:17 GMT+0000 (GMT),1575196817265,1|1|1|1|1|1|1|1|1|1|1|1|1|1|1|1|1|1|1|1|1|1|1|1|1|1|1|0|0|0|0|0|0|0|0|0|1|1|1|0|0|0|0|0|0|0|0|0|1|1|1|0|0|0|0|0|0|0|0|0,9.36695,main_trials,12
418,,13036,19,all|most|some|none,all|most|some|none,right|wrong,5,,high,placeholder,Graduated High School,1575197379282,placeholder,10,male,English ,5c9a001bca9d1f00109d04e7,Describe these results of <strong>Green Valley</strong> so as to make it appear as if there is a <strong>high</strong> success rate without lying.,most|some|right,9|9|9|0|0,In this exam,of the students got,of the questions,.,7,"%{""instances"" => [%{""n_col"" => 12, ""rows"" => [9, 9, 9, 0, 0]}], ""number"" => 7, ""sequence"" => [""BBBDD"", ""BBBBD"", ""BBBCD""], ""truth_table"" => []}",Sun Dec 01 2019 10:40:17 GMT+0000 (GMT),1575196817265,1|1|1|1|1|1|1|1|1|0|0|0|1|1|1|1|1|1|1|1|1|0|0|0|1|1|1|1|1|1|1|1|1|0|0|0|0|0|0|0|0|0|0|0|0|0|0|0|0|0|0|0|0|0|0|0|0|0|0|0,9.36695,main_trials,13
418,,18589,19,all|most|some|none,all|most|some|none,right|wrong,5,,high,placeholder,Graduated High School,1575197379282,placeholder,10,male,English ,5c9a001bca9d1f00109d04e7,Describe these results of <strong>Green Valley</strong> so as to make it appear as if there is a <strong>high</strong> success rate without lying.,most|some|wrong,3|3|3|0|0,In this exam,of the students got,of the questions,.,5,"%{""instances"" => [%{""n_col"" => 12, ""rows"" => [3, 3, 3, 0, 0]}], ""number"" => 5, ""sequence"" => [""CCCDD"", ""CCCCD""], ""truth_table"" => []}",Sun Dec 01 2019 10:40:17 GMT+0000 (GMT),1575196817265,1|1|1|0|0|0|0|0|0|0|0|0|1|1|1|0|0|0|0|0|0|0|0|0|1|1|1|0|0|0|0|0|0|0|0|0|0|0|0|0|0|0|0|0|0|0|0|0|0|0|0|0|0|0|0|0|0|0|0|0,9.36695,main_trials,14
418,,16851,19,all|most|some|none,all|most|some|none,right|wrong,5,,low,placeholder,Graduated High School,1575197379282,placeholder,10,male,English ,5c9a001bca9d1f00109d04e7,Describe these results of <strong>Riverside</strong> so as to make it appear as if there is a <strong>low</strong> success rate without lying.,none|none|wrong,12|12|12|12|12,In this exam,of the students got,of the questions,.,20,"%{""instances"" => [%{""n_col"" => 12, ""rows"" => '\f\f\f\f\f'}], ""number"" => 20, ""sequence"" => [""AAAAA""], ""truth_table"" => []}",Sun Dec 01 2019 10:40:17 GMT+0000 (GMT),1575196817265,1|1|1|1|1|1|1|1|1|1|1|1|1|1|1|1|1|1|1|1|1|1|1|1|1|1|1|1|1|1|1|1|1|1|1|1|1|1|1|1|1|1|1|1|1|1|1|1|1|1|1|1|1|1|1|1|1|1|1|1,9.36695,main_trials,15
418,,7560,19,all|most|some|none,all|most|some|none,right|wrong,5,,low,placeholder,Graduated High School,1575197379282,placeholder,10,male,English ,5c9a001bca9d1f00109d04e7,Describe these results of <strong>Riverside</strong> so as to make it appear as if there is a <strong>low</strong> success rate without lying.,all|some|wrong,9|9|9|9|9,In this exam,of the students got,of the questions,.,17,"%{""instances"" => [%{""n_col"" => 12, ""rows"" => '\t\t\t\t\t'}], ""number"" => 17, ""sequence"" => [""BBBBB""], ""truth_table"" => []}",Sun Dec 01 2019 10:40:17 GMT+0000 (GMT),1575196817265,1|1|1|1|1|1|1|1|1|0|0|0|1|1|1|1|1|1|1|1|1|0|0|0|1|1|1|1|1|1|1|1|1|0|0|0|1|1|1|1|1|1|1|1|1|0|0|0|1|1|1|1|1|1|1|1|1|0|0|0,9.36695,main_trials,16
418,,7723,19,all|most|some|none,all|most|some|none,right|wrong,5,,low,placeholder,Graduated High School,1575197379282,placeholder,10,male,English ,5c9a001bca9d1f00109d04e7,Describe these results of <strong>Riverside</strong> so as to make it appear as if there is a <strong>low</strong> success rate without lying.,most|most|wrong,12|12|0|0|0,In this exam,of the students got,of the questions,.,4,"%{""instances"" => [%{""n_col"" => 12, ""rows"" => [12, 12, 0, 0, 0]}], ""number"" => 4, ""sequence"" => [""ADDDD"", ""AADDD"", ""ABDDD"", ""ACDDD""], ""truth_table"" => []}",Sun Dec 01 2019 10:40:17 GMT+0000 (GMT),1575196817265,1|1|1|1|1|1|1|1|1|1|1|1|1|1|1|1|1|1|1|1|1|1|1|1|0|0|0|0|0|0|0|0|0|0|0|0|0|0|0|0|0|0|0|0|0|0|0|0|0|0|0|0|0|0|0|0|0|0|0|0,9.36695,main_trials,17
418,,4386,19,all|most|some|none,all|most|some|none,right|wrong,5,,high,placeholder,Graduated High School,1575197379282,placeholder,10,male,English ,5c9a001bca9d1f00109d04e7,Describe these results of <strong>Green Valley</strong> so as to make it appear as if there is a <strong>high</strong> success rate without lying.,most|most|right,12|12|12|0|0,In this exam,of the students got,of the questions,.,9,"%{""instances"" => [%{""n_col"" => 12, ""rows"" => [12, 12, 12, 0, 0]}], ""number"" => 9, ""sequence"" => [""AAADD"", ""AAAAD"", ""AAABD"", ""AAACD""], ""truth_table"" => []}",Sun Dec 01 2019 10:40:17 GMT+0000 (GMT),1575196817265,1|1|1|1|1|1|1|1|1|1|1|1|1|1|1|1|1|1|1|1|1|1|1|1|1|1|1|1|1|1|1|1|1|1|1|1|0|0|0|0|0|0|0|0|0|0|0|0|0|0|0|0|0|0|0|0|0|0|0|0,9.36695,main_trials,18
418,,9054,19,all|most|some|none,all|most|some|none,right|wrong,5,,low,placeholder,Graduated High School,1575197379282,placeholder,10,male,English ,5c9a001bca9d1f00109d04e7,Describe these results of <strong>Riverside</strong> so as to make it appear as if there is a <strong>low</strong> success rate without lying.,all|some|wrong,9|9|9|3|3,In this exam,of the students got,of the questions,.,14,"%{""instances"" => [%{""n_col"" => 12, ""rows"" => [9, 9, 9, 3, 3]}], ""number"" => 14, ""sequence"" => [""BBBCC"", ""BBBBC""], ""truth_table"" => []}",Sun Dec 01 2019 10:40:17 GMT+0000 (GMT),1575196817265,1|1|1|1|1|1|1|1|1|0|0|0|1|1|1|1|1|1|1|1|1|0|0|0|1|1|1|1|1|1|1|1|1|0|0|0|1|1|1|0|0|0|0|0|0|0|0|0|1|1|1|0|0|0|0|0|0|0|0|0,9.36695,main_trials,19
418,,4976,19,all|most|some|none,all|most|some|none,right|wrong,5,,high,placeholder,Graduated High School,1575197379282,placeholder,10,male,English ,5c9a001bca9d1f00109d04e7,Describe these results of <strong>Green Valley</strong> so as to make it appear as if there is a <strong>high</strong> success rate without lying.,all|most|right,12|12|12|3|3,In this exam,of the students got,of the questions,.,16,"%{""instances"" => [%{""n_col"" => 12, ""rows"" => [12, 12, 12, 3, 3]}], ""number"" => 16, ""sequence"" => [""AAACC"", ""AAAAC"", ""AAABC""], ""truth_table"" => []}",Sun Dec 01 2019 10:40:17 GMT+0000 (GMT),1575196817265,1|1|1|1|1|1|1|1|1|1|1|1|1|1|1|1|1|1|1|1|1|1|1|1|1|1|1|1|1|1|1|1|1|1|1|1|1|1|1|0|0|0|0|0|0|0|0|0|1|1|1|0|0|0|0|0|0|0|0|0,9.36695,main_trials,20
417,,37382,57,all|most|some|none,all|most|some|none,right|wrong,5,,high,placeholder,Graduated High School,1575197376762,placeholder,10,female,English,5d73deaf4a66570016fcf962,Describe these results of <strong>Green Valley</strong> so as to make it appear as if there is a <strong>high</strong> success rate without lying.,some|all|right,12|12|0|0|0,In this exam,of the students got,of the questions,.,4,"%{""instances"" => [%{""n_col"" => 12, ""rows"" => [12, 12, 0, 0, 0]}], ""number"" => 4, ""sequence"" => [""ADDDD"", ""AADDD"", ""ABDDD"", ""ACDDD""], ""truth_table"" => []}",Sun Dec 01 2019 04:40:31 GMT-0600 (CST),1575196831798,1|1|1|1|1|1|1|1|1|1|1|1|1|1|1|1|1|1|1|1|1|1|1|1|0|0|0|0|0|0|0|0|0|0|0|0|0|0|0|0|0|0|0|0|0|0|0|0|0|0|0|0|0|0|0|0|0|0|0|0,9.082733333333334,training_trials,1
417,,22049,57,all|most|some|none,all|most|some|none,right|wrong,5,,low,placeholder,Graduated High School,1575197376762,placeholder,10,female,English,5d73deaf4a66570016fcf962,Describe these results of <strong>Riverside</strong> so as to make it appear as if there is a <strong>low</strong> success rate without lying.,most|all|wrong,12|12|0|0|0,In this exam,of the students got,of the questions,.,4,"%{""instances"" => [%{""n_col"" => 12, ""rows"" => [12, 12, 0, 0, 0]}], ""number"" => 4, ""sequence"" => [""ADDDD"", ""AADDD"", ""ABDDD"", ""ACDDD""], ""truth_table"" => []}",Sun Dec 01 2019 04:40:31 GMT-0600 (CST),1575196831798,1|1|1|1|1|1|1|1|1|1|1|1|1|1|1|1|1|1|1|1|1|1|1|1|0|0|0|0|0|0|0|0|0|0|0|0|0|0|0|0|0|0|0|0|0|0|0|0|0|0|0|0|0|0|0|0|0|0|0|0,9.082733333333334,training_trials,2
417,,32042,57,all|most|some|none,all|most|some|none,right|wrong,5,,high,placeholder,Graduated High School,1575197376762,placeholder,10,female,English,5d73deaf4a66570016fcf962,Describe these results of <strong>Green Valley</strong> so as to make it appear as if there is a <strong>high</strong> success rate without lying.,all|some|right,9|9|3|3|3,In this exam,of the students got,of the questions,.,12,"%{""instances"" => [%{""n_col"" => 12, ""rows"" => [9, 9, 3, 3, 3]}], ""number"" => 12, ""sequence"" => [""BCCCC"", ""BBCCC""], ""truth_table"" => []}",Sun Dec 01 2019 04:40:31 GMT-0600 (CST),1575196831798,1|1|1|1|1|1|1|1|1|0|0|0|1|1|1|1|1|1|1|1|1|0|0|0|1|1|1|0|0|0|0|0|0|0|0|0|1|1|1|0|0|0|0|0|0|0|0|0|1|1|1|0|0|0|0|0|0|0|0|0,9.082733333333334,training_trials,3
417,,12874,57,all|most|some|none,all|most|some|none,right|wrong,5,,low,placeholder,Graduated High School,1575197376762,placeholder,10,female,English,5d73deaf4a66570016fcf962,Describe these results of <strong>Riverside</strong> so as to make it appear as if there is a <strong>low</strong> success rate without lying.,most|most|wrong,9|9|3|3|3,In this exam,of the students got,of the questions,.,12,"%{""instances"" => [%{""n_col"" => 12, ""rows"" => [9, 9, 3, 3, 3]}], ""number"" => 12, ""sequence"" => [""BCCCC"", ""BBCCC""], ""truth_table"" => []}",Sun Dec 01 2019 04:40:31 GMT-0600 (CST),1575196831798,1|1|1|1|1|1|1|1|1|0|0|0|1|1|1|1|1|1|1|1|1|0|0|0|1|1|1|0|0|0|0|0|0|0|0|0|1|1|1|0|0|0|0|0|0|0|0|0|1|1|1|0|0|0|0|0|0|0|0|0,9.082733333333334,training_trials,4
417,,17184,57,all|most|some|none,all|most|some|none,right|wrong,5,,high,placeholder,Graduated High School,1575197376762,placeholder,10,female,English,5d73deaf4a66570016fcf962,Describe these results of <strong>Green Valley</strong> so as to make it appear as if there is a <strong>high</strong> success rate without lying.,some|all|right,12|12|0|0|0,In this exam,of the students got,of the questions,.,4,"%{""instances"" => [%{""n_col"" => 12, ""rows"" => [12, 12, 0, 0, 0]}], ""number"" => 4, ""sequence"" => [""ADDDD"", ""AADDD"", ""ABDDD"", ""ACDDD""], ""truth_table"" => []}",Sun Dec 01 2019 04:40:31 GMT-0600 (CST),1575196831798,1|1|1|1|1|1|1|1|1|1|1|1|1|1|1|1|1|1|1|1|1|1|1|1|0|0|0|0|0|0|0|0|0|0|0|0|0|0|0|0|0|0|0|0|0|0|0|0|0|0|0|0|0|0|0|0|0|0|0|0,9.082733333333334,main_trials,1
417,,24646,57,all|most|some|none,all|most|some|none,right|wrong,5,,low,placeholder,Graduated High School,1575197376762,placeholder,10,female,English,5d73deaf4a66570016fcf962,Describe these results of <strong>Riverside</strong> so as to make it appear as if there is a <strong>low</strong> success rate without lying.,some|all|right,12|12|3|0|0,In this exam,of the students got,of the questions,.,1,"%{""instances"" => [%{""n_col"" => 12, ""rows"" => [12, 12, 3, 0, 0]}], ""number"" => 1, ""sequence"" => [""ACCCD"", ""ACCDD"", ""AACDD"", ""AACCD"", ""ABCDD"", ""ABCCD""], ""truth_table"" => []}",Sun Dec 01 2019 04:40:31 GMT-0600 (CST),1575196831798,1|1|1|1|1|1|1|1|1|1|1|1|1|1|1|1|1|1|1|1|1|1|1|1|1|1|1|0|0|0|0|0|0|0|0|0|0|0|0|0|0|0|0|0|0|0|0|0|0|0|0|0|0|0|0|0|0|0|0|0,9.082733333333334,main_trials,2
417,,13919,57,all|most|some|none,all|most|some|none,right|wrong,5,,high,placeholder,Graduated High School,1575197376762,placeholder,10,female,English,5d73deaf4a66570016fcf962,Describe these results of <strong>Green Valley</strong> so as to make it appear as if there is a <strong>high</strong> success rate without lying.,all|some|right,3|3|3|3|3,In this exam,of the students got,of the questions,.,11,"%{""instances"" => [%{""n_col"" => 12, ""rows"" => [3, 3, 3, 3, 3]}], ""number"" => 11, ""sequence"" => [""CCCCC""], ""truth_table"" => []}",Sun Dec 01 2019 04:40:31 GMT-0600 (CST),1575196831798,1|1|1|0|0|0|0|0|0|0|0|0|1|1|1|0|0|0|0|0|0|0|0|0|1|1|1|0|0|0|0|0|0|0|0|0|1|1|1|0|0|0|0|0|0|0|0|0|1|1|1|0|0|0|0|0|0|0|0|0,9.082733333333334,main_trials,3
417,,8120,57,all|most|some|none,all|most|some|none,right|wrong,5,,low,placeholder,Graduated High School,1575197376762,placeholder,10,female,English,5d73deaf4a66570016fcf962,Describe these results of <strong>Riverside</strong> so as to make it appear as if there is a <strong>low</strong> success rate without lying.,most|most|right,9|9|9|0|0,In this exam,of the students got,of the questions,.,7,"%{""instances"" => [%{""n_col"" => 12, ""rows"" => [9, 9, 9, 0, 0]}], ""number"" => 7, ""sequence"" => [""BBBDD"", ""BBBBD"", ""BBBCD""], ""truth_table"" => []}",Sun Dec 01 2019 04:40:31 GMT-0600 (CST),1575196831798,1|1|1|1|1|1|1|1|1|0|0|0|1|1|1|1|1|1|1|1|1|0|0|0|1|1|1|1|1|1|1|1|1|0|0|0|0|0|0|0|0|0|0|0|0|0|0|0|0|0|0|0|0|0|0|0|0|0|0|0,9.082733333333334,main_trials,4
417,,21353,57,all|most|some|none,all|most|some|none,right|wrong,5,,high,placeholder,Graduated High School,1575197376762,placeholder,10,female,English,5d73deaf4a66570016fcf962,Describe these results of <strong>Green Valley</strong> so as to make it appear as if there is a <strong>high</strong> success rate without lying.,some|most|right,9|9|3|0|0,In this exam,of the students got,of the questions,.,6,"%{""instances"" => [%{""n_col"" => 12, ""rows"" => [9, 9, 3, 0, 0]}], ""number"" => 6, ""sequence"" => [""BCCCD"", ""BCCDD"", ""BBCDD"", ""BBCCD""], ""truth_table"" => []}",Sun Dec 01 2019 04:40:31 GMT-0600 (CST),1575196831798,1|1|1|1|1|1|1|1|1|0|0|0|1|1|1|1|1|1|1|1|1|0|0|0|1|1|1|0|0|0|0|0|0|0|0|0|0|0|0|0|0|0|0|0|0|0|0|0|0|0|0|0|0|0|0|0|0|0|0|0,9.082733333333334,main_trials,5
417,,33079,57,all|most|some|none,all|most|some|none,right|wrong,5,,low,placeholder,Graduated High School,1575197376762,placeholder,10,female,English,5d73deaf4a66570016fcf962,Describe these results of <strong>Riverside</strong> so as to make it appear as if there is a <strong>low</strong> success rate without lying.,some|most|wrong,9|9|9|3|3,In this exam,of the students got,of the questions,.,14,"%{""instances"" => [%{""n_col"" => 12, ""rows"" => [9, 9, 9, 3, 3]}], ""number"" => 14, ""sequence"" => [""BBBCC"", ""BBBBC""], ""truth_table"" => []}",Sun Dec 01 2019 04:40:31 GMT-0600 (CST),1575196831798,1|1|1|1|1|1|1|1|1|0|0|0|1|1|1|1|1|1|1|1|1|0|0|0|1|1|1|1|1|1|1|1|1|0|0|0|1|1|1|0|0|0|0|0|0|0|0|0|1|1|1|0|0|0|0|0|0|0|0|0,9.082733333333334,main_trials,6
417,,14469,57,all|most|some|none,all|most|some|none,right|wrong,5,,low,placeholder,Graduated High School,1575197376762,placeholder,10,female,English,5d73deaf4a66570016fcf962,Describe these results of <strong>Riverside</strong> so as to make it appear as if there is a <strong>low</strong> success rate without lying.,all|most|wrong,3|3|3|0|0,In this exam,of the students got,of the questions,.,5,"%{""instances"" => [%{""n_col"" => 12, ""rows"" => [3, 3, 3, 0, 0]}], ""number"" => 5, ""sequence"" => [""CCCDD"", ""CCCCD""], ""truth_table"" => []}",Sun Dec 01 2019 04:40:31 GMT-0600 (CST),1575196831798,1|1|1|0|0|0|0|0|0|0|0|0|1|1|1|0|0|0|0|0|0|0|0|0|1|1|1|0|0|0|0|0|0|0|0|0|0|0|0|0|0|0|0|0|0|0|0|0|0|0|0|0|0|0|0|0|0|0|0|0,9.082733333333334,main_trials,7
417,,21486,57,all|most|some|none,all|most|some|none,right|wrong,5,,low,placeholder,Graduated High School,1575197376762,placeholder,10,female,English,5d73deaf4a66570016fcf962,Describe these results of <strong>Riverside</strong> so as to make it appear as if there is a <strong>low</strong> success rate without lying.,all|all|wrong,0|0|0|0|0,In this exam,of the students got,of the questions,.,10,"%{""instances"" => [%{""n_col"" => 12, ""rows"" => [0, 0, 0, 0, 0]}], ""number"" => 10, ""sequence"" => [""DDDDD""], ""truth_table"" => []}",Sun Dec 01 2019 04:40:31 GMT-0600 (CST),1575196831798,0|0|0|0|0|0|0|0|0|0|0|0|0|0|0|0|0|0|0|0|0|0|0|0|0|0|0|0|0|0|0|0|0|0|0|0|0|0|0|0|0|0|0|0|0|0|0|0|0|0|0|0|0|0|0|0|0|0|0|0,9.082733333333334,main_trials,8
417,,10550,57,all|most|some|none,all|most|some|none,right|wrong,5,,high,placeholder,Graduated High School,1575197376762,placeholder,10,female,English,5d73deaf4a66570016fcf962,Describe these results of <strong>Green Valley</strong> so as to make it appear as if there is a <strong>high</strong> success rate without lying.,some|most|right,9|9|0|0|0,In this exam,of the students got,of the questions,.,3,"%{""instances"" => [%{""n_col"" => 12, ""rows"" => [9, 9, 0, 0, 0]}], ""number"" => 3, ""sequence"" => [""BDDDD"", ""BBDDD"", ""BCDDD""], ""truth_table"" => []}",Sun Dec 01 2019 04:40:31 GMT-0600 (CST),1575196831798,1|1|1|1|1|1|1|1|1|0|0|0|1|1|1|1|1|1|1|1|1|0|0|0|0|0|0|0|0|0|0|0|0|0|0|0|0|0|0|0|0|0|0|0|0|0|0|0|0|0|0|0|0|0|0|0|0|0|0|0,9.082733333333334,main_trials,9
417,,19409,57,all|most|some|none,all|most|some|none,right|wrong,5,,low,placeholder,Graduated High School,1575197376762,placeholder,10,female,English,5d73deaf4a66570016fcf962,Describe these results of <strong>Riverside</strong> so as to make it appear as if there is a <strong>low</strong> success rate without lying.,most|most|wrong,9|9|3|3|3,In this exam,of the students got,of the questions,.,12,"%{""instances"" => [%{""n_col"" => 12, ""rows"" => [9, 9, 3, 3, 3]}], ""number"" => 12, ""sequence"" => [""BCCCC"", ""BBCCC""], ""truth_table"" => []}",Sun Dec 01 2019 04:40:31 GMT-0600 (CST),1575196831798,1|1|1|1|1|1|1|1|1|0|0|0|1|1|1|1|1|1|1|1|1|0|0|0|1|1|1|0|0|0|0|0|0|0|0|0|1|1|1|0|0|0|0|0|0|0|0|0|1|1|1|0|0|0|0|0|0|0|0|0,9.082733333333334,main_trials,10
417,,11381,57,all|most|some|none,all|most|some|none,right|wrong,5,,high,placeholder,Graduated High School,1575197376762,placeholder,10,female,English,5d73deaf4a66570016fcf962,Describe these results of <strong>Green Valley</strong> so as to make it appear as if there is a <strong>high</strong> success rate without lying.,most|most|right,12|12|9|0|0,In this exam,of the students got,of the questions,.,8,"%{""instances"" => [%{""n_col"" => 12, ""rows"" => [12, 12, 9, 0, 0]}], ""number"" => 8, ""sequence"" => [""ABBBD"", ""ABBDD"", ""AABDD"", ""ABBBD"", ""ABBCD"", ""AABCD""], ""truth_table"" => []}",Sun Dec 01 2019 04:40:31 GMT-0600 (CST),1575196831798,1|1|1|1|1|1|1|1|1|1|1|1|1|1|1|1|1|1|1|1|1|1|1|1|1|1|1|1|1|1|1|1|1|0|0|0|0|0|0|0|0|0|0|0|0|0|0|0|0|0|0|0|0|0|0|0|0|0|0|0,9.082733333333334,main_trials,11
417,,16272,57,all|most|some|none,all|most|some|none,right|wrong,5,,low,placeholder,Graduated High School,1575197376762,placeholder,10,female,English,5d73deaf4a66570016fcf962,Describe these results of <strong>Riverside</strong> so as to make it appear as if there is a <strong>low</strong> success rate without lying.,some|some|wrong,12|12|9|9|9,In this exam,of the students got,of the questions,.,18,"%{""instances"" => [%{""n_col"" => 12, ""rows"" => '\f\f\t\t\t'}], ""number"" => 18, ""sequence"" => [""ABBBB"", ""AABBB""], ""truth_table"" => []}",Sun Dec 01 2019 04:40:31 GMT-0600 (CST),1575196831798,1|1|1|1|1|1|1|1|1|1|1|1|1|1|1|1|1|1|1|1|1|1|1|1|1|1|1|1|1|1|1|1|1|0|0|0|1|1|1|1|1|1|1|1|1|0|0|0|1|1|1|1|1|1|1|1|1|0|0|0,9.082733333333334,main_trials,12
417,,9829,57,all|most|some|none,all|most|some|none,right|wrong,5,,high,placeholder,Graduated High School,1575197376762,placeholder,10,female,English,5d73deaf4a66570016fcf962,Describe these results of <strong>Green Valley</strong> so as to make it appear as if there is a <strong>high</strong> success rate without lying.,all|all|right,12|12|12|12|12,In this exam,of the students got,of the questions,.,20,"%{""instances"" => [%{""n_col"" => 12, ""rows"" => '\f\f\f\f\f'}], ""number"" => 20, ""sequence"" => [""AAAAA""], ""truth_table"" => []}",Sun Dec 01 2019 04:40:31 GMT-0600 (CST),1575196831798,1|1|1|1|1|1|1|1|1|1|1|1|1|1|1|1|1|1|1|1|1|1|1|1|1|1|1|1|1|1|1|1|1|1|1|1|1|1|1|1|1|1|1|1|1|1|1|1|1|1|1|1|1|1|1|1|1|1|1|1,9.082733333333334,main_trials,13
417,,9476,57,all|most|some|none,all|most|some|none,right|wrong,5,,high,placeholder,Graduated High School,1575197376762,placeholder,10,female,English,5d73deaf4a66570016fcf962,Describe these results of <strong>Green Valley</strong> so as to make it appear as if there is a <strong>high</strong> success rate without lying.,most|most|right,12|12|9|3|3,In this exam,of the students got,of the questions,.,15,"%{""instances"" => [%{""n_col"" => 12, ""rows"" => [12, 12, 9, 3, 3]}], ""number"" => 15, ""sequence"" => [""ABBBC"", ""ABBCC"", ""AABCC"", ""AABBC""], ""truth_table"" => []}",Sun Dec 01 2019 04:40:31 GMT-0600 (CST),1575196831798,1|1|1|1|1|1|1|1|1|1|1|1|1|1|1|1|1|1|1|1|1|1|1|1|1|1|1|1|1|1|1|1|1|0|0|0|1|1|1|0|0|0|0|0|0|0|0|0|1|1|1|0|0|0|0|0|0|0|0|0,9.082733333333334,main_trials,14
417,,13452,57,all|most|some|none,all|most|some|none,right|wrong,5,,high,placeholder,Graduated High School,1575197376762,placeholder,10,female,English,5d73deaf4a66570016fcf962,Describe these results of <strong>Green Valley</strong> so as to make it appear as if there is a <strong>high</strong> success rate without lying.,some|some|right,3|3|0|0|0,In this exam,of the students got,of the questions,.,2,"%{""instances"" => [%{""n_col"" => 12, ""rows"" => [3, 3, 0, 0, 0]}], ""number"" => 2, ""sequence"" => [""CDDDD"", ""CCDDD""], ""truth_table"" => []}",Sun Dec 01 2019 04:40:31 GMT-0600 (CST),1575196831798,1|1|1|0|0|0|0|0|0|0|0|0|1|1|1|0|0|0|0|0|0|0|0|0|0|0|0|0|0|0|0|0|0|0|0|0|0|0|0|0|0|0|0|0|0|0|0|0|0|0|0|0|0|0|0|0|0|0|0|0,9.082733333333334,main_trials,15
417,,12063,57,all|most|some|none,all|most|some|none,right|wrong,5,,high,placeholder,Graduated High School,1575197376762,placeholder,10,female,English,5d73deaf4a66570016fcf962,Describe these results of <strong>Green Valley</strong> so as to make it appear as if there is a <strong>high</strong> success rate without lying.,most|all|right,12|12|12|9|9,In this exam,of the students got,of the questions,.,19,"%{""instances"" => [%{""n_col"" => 12, ""rows"" => '\f\f\f\t\t'}], ""number"" => 19, ""sequence"" => [""AAABB"", ""AAAAB""], ""truth_table"" => []}",Sun Dec 01 2019 04:40:31 GMT-0600 (CST),1575196831798,1|1|1|1|1|1|1|1|1|1|1|1|1|1|1|1|1|1|1|1|1|1|1|1|1|1|1|1|1|1|1|1|1|1|1|1|1|1|1|1|1|1|1|1|1|0|0|0|1|1|1|1|1|1|1|1|1|0|0|0,9.082733333333334,main_trials,16
417,,9428,57,all|most|some|none,all|most|some|none,right|wrong,5,,low,placeholder,Graduated High School,1575197376762,placeholder,10,female,English,5d73deaf4a66570016fcf962,Describe these results of <strong>Riverside</strong> so as to make it appear as if there is a <strong>low</strong> success rate without lying.,some|most|wrong,12|12|12|3|3,In this exam,of the students got,of the questions,.,16,"%{""instances"" => [%{""n_col"" => 12, ""rows"" => [12, 12, 12, 3, 3]}], ""number"" => 16, ""sequence"" => [""AAACC"", ""AAAAC"", ""AAABC""], ""truth_table"" => []}",Sun Dec 01 2019 04:40:31 GMT-0600 (CST),1575196831798,1|1|1|1|1|1|1|1|1|1|1|1|1|1|1|1|1|1|1|1|1|1|1|1|1|1|1|1|1|1|1|1|1|1|1|1|1|1|1|0|0|0|0|0|0|0|0|0|1|1|1|0|0|0|0|0|0|0|0|0,9.082733333333334,main_trials,17
417,,13948,57,all|most|some|none,all|most|some|none,right|wrong,5,,low,placeholder,Graduated High School,1575197376762,placeholder,10,female,English,5d73deaf4a66570016fcf962,Describe these results of <strong>Riverside</strong> so as to make it appear as if there is a <strong>low</strong> success rate without lying.,all|some|wrong,9|9|9|9|9,In this exam,of the students got,of the questions,.,17,"%{""instances"" => [%{""n_col"" => 12, ""rows"" => '\t\t\t\t\t'}], ""number"" => 17, ""sequence"" => [""BBBBB""], ""truth_table"" => []}",Sun Dec 01 2019 04:40:31 GMT-0600 (CST),1575196831798,1|1|1|1|1|1|1|1|1|0|0|0|1|1|1|1|1|1|1|1|1|0|0|0|1|1|1|1|1|1|1|1|1|0|0|0|1|1|1|1|1|1|1|1|1|0|0|0|1|1|1|1|1|1|1|1|1|0|0|0,9.082733333333334,main_trials,18
417,,9302,57,all|most|some|none,all|most|some|none,right|wrong,5,,low,placeholder,Graduated High School,1575197376762,placeholder,10,female,English,5d73deaf4a66570016fcf962,Describe these results of <strong>Riverside</strong> so as to make it appear as if there is a <strong>low</strong> success rate without lying.,most|most|wrong,12|12|3|3|3,In this exam,of the students got,of the questions,.,13,"%{""instances"" => [%{""n_col"" => 12, ""rows"" => [12, 12, 3, 3, 3]}], ""number"" => 13, ""sequence"" => [""ACCCC"", ""AACCC"", ""ABCCC""], ""truth_table"" => []}",Sun Dec 01 2019 04:40:31 GMT-0600 (CST),1575196831798,1|1|1|1|1|1|1|1|1|1|1|1|1|1|1|1|1|1|1|1|1|1|1|1|1|1|1|0|0|0|0|0|0|0|0|0|1|1|1|0|0|0|0|0|0|0|0|0|1|1|1|0|0|0|0|0|0|0|0|0,9.082733333333334,main_trials,19
417,,9413,57,all|most|some|none,all|most|some|none,right|wrong,5,,high,placeholder,Graduated High School,1575197376762,placeholder,10,female,English,5d73deaf4a66570016fcf962,Describe these results of <strong>Green Valley</strong> so as to make it appear as if there is a <strong>high</strong> success rate without lying.,most|all|right,12|12|12|0|0,In this exam,of the students got,of the questions,.,9,"%{""instances"" => [%{""n_col"" => 12, ""rows"" => [12, 12, 12, 0, 0]}], ""number"" => 9, ""sequence"" => [""AAADD"", ""AAAAD"", ""AAABD"", ""AAACD""], ""truth_table"" => []}",Sun Dec 01 2019 04:40:31 GMT-0600 (CST),1575196831798,1|1|1|1|1|1|1|1|1|1|1|1|1|1|1|1|1|1|1|1|1|1|1|1|1|1|1|1|1|1|1|1|1|1|1|1|0|0|0|0|0|0|0|0|0|0|0|0|0|0|0|0|0|0|0|0|0|0|0|0,9.082733333333334,main_trials,20
416,,28416,44,all|most|some|none,all|most|some|none,right|wrong,5,,high,placeholder,Higher Degree,1575197372414,placeholder,10,male,English,5c6dab5f5d81110001e1934a,Describe these results of <strong>Green Valley</strong> so as to make it appear as if there is a <strong>high</strong> success rate without lying.,some|all|right,12|12|0|0|0,In this exam,of the students got,of the questions,.,4,"%{""instances"" => [%{""n_col"" => 12, ""rows"" => [12, 12, 0, 0, 0]}], ""number"" => 4, ""sequence"" => [""ADDDD"", ""AADDD"", ""ABDDD"", ""ACDDD""], ""truth_table"" => []}",Sun Dec 01 2019 10:40:29 GMT+0000 (GMT),1575196829269,1|1|1|1|1|1|1|1|1|1|1|1|1|1|1|1|1|1|1|1|1|1|1|1|0|0|0|0|0|0|0|0|0|0|0|0|0|0|0|0|0|0|0|0|0|0|0|0|0|0|0|0|0|0|0|0|0|0|0|0,9.052416666666666,training_trials,1
416,,79982,44,all|most|some|none,all|most|some|none,right|wrong,5,,low,placeholder,Higher Degree,1575197372414,placeholder,10,male,English,5c6dab5f5d81110001e1934a,Describe these results of <strong>Riverside</strong> so as to make it appear as if there is a <strong>low</strong> success rate without lying.,some|all|wrong,12|12|0|0|0,In this exam,of the students got,of the questions,.,4,"%{""instances"" => [%{""n_col"" => 12, ""rows"" => [12, 12, 0, 0, 0]}], ""number"" => 4, ""sequence"" => [""ADDDD"", ""AADDD"", ""ABDDD"", ""ACDDD""], ""truth_table"" => []}",Sun Dec 01 2019 10:40:29 GMT+0000 (GMT),1575196829269,1|1|1|1|1|1|1|1|1|1|1|1|1|1|1|1|1|1|1|1|1|1|1|1|0|0|0|0|0|0|0|0|0|0|0|0|0|0|0|0|0|0|0|0|0|0|0|0|0|0|0|0|0|0|0|0|0|0|0|0,9.052416666666666,training_trials,2
416,,12075,44,all|most|some|none,all|most|some|none,right|wrong,5,,high,placeholder,Higher Degree,1575197372414,placeholder,10,male,English,5c6dab5f5d81110001e1934a,Describe these results of <strong>Green Valley</strong> so as to make it appear as if there is a <strong>high</strong> success rate without lying.,all|some|right,9|9|3|3|3,In this exam,of the students got,of the questions,.,12,"%{""instances"" => [%{""n_col"" => 12, ""rows"" => [9, 9, 3, 3, 3]}], ""number"" => 12, ""sequence"" => [""BCCCC"", ""BBCCC""], ""truth_table"" => []}",Sun Dec 01 2019 10:40:29 GMT+0000 (GMT),1575196829269,1|1|1|1|1|1|1|1|1|0|0|0|1|1|1|1|1|1|1|1|1|0|0|0|1|1|1|0|0|0|0|0|0|0|0|0|1|1|1|0|0|0|0|0|0|0|0|0|1|1|1|0|0|0|0|0|0|0|0|0,9.052416666666666,training_trials,3
416,,15372,44,all|most|some|none,all|most|some|none,right|wrong,5,,low,placeholder,Higher Degree,1575197372414,placeholder,10,male,English,5c6dab5f5d81110001e1934a,Describe these results of <strong>Riverside</strong> so as to make it appear as if there is a <strong>low</strong> success rate without lying.,all|some|wrong,9|9|3|3|3,In this exam,of the students got,of the questions,.,12,"%{""instances"" => [%{""n_col"" => 12, ""rows"" => [9, 9, 3, 3, 3]}], ""number"" => 12, ""sequence"" => [""BCCCC"", ""BBCCC""], ""truth_table"" => []}",Sun Dec 01 2019 10:40:29 GMT+0000 (GMT),1575196829269,1|1|1|1|1|1|1|1|1|0|0|0|1|1|1|1|1|1|1|1|1|0|0|0|1|1|1|0|0|0|0|0|0|0|0|0|1|1|1|0|0|0|0|0|0|0|0|0|1|1|1|0|0|0|0|0|0|0|0|0,9.052416666666666,training_trials,4
416,,18177,44,all|most|some|none,all|most|some|none,right|wrong,5,,low,placeholder,Higher Degree,1575197372414,placeholder,10,male,English,5c6dab5f5d81110001e1934a,Describe these results of <strong>Riverside</strong> so as to make it appear as if there is a <strong>low</strong> success rate without lying.,all|most|wrong,3|3|0|0|0,In this exam,of the students got,of the questions,.,2,"%{""instances"" => [%{""n_col"" => 12, ""rows"" => [3, 3, 0, 0, 0]}], ""number"" => 2, ""sequence"" => [""CDDDD"", ""CCDDD""], ""truth_table"" => []}",Sun Dec 01 2019 10:40:29 GMT+0000 (GMT),1575196829269,1|1|1|0|0|0|0|0|0|0|0|0|1|1|1|0|0|0|0|0|0|0|0|0|0|0|0|0|0|0|0|0|0|0|0|0|0|0|0|0|0|0|0|0|0|0|0|0|0|0|0|0|0|0|0|0|0|0|0|0,9.052416666666666,main_trials,1
416,,12544,44,all|most|some|none,all|most|some|none,right|wrong,5,,low,placeholder,Higher Degree,1575197372414,placeholder,10,male,English,5c6dab5f5d81110001e1934a,Describe these results of <strong>Riverside</strong> so as to make it appear as if there is a <strong>low</strong> success rate without lying.,most|some|wrong,12|12|3|3|3,In this exam,of the students got,of the questions,.,13,"%{""instances"" => [%{""n_col"" => 12, ""rows"" => [12, 12, 3, 3, 3]}], ""number"" => 13, ""sequence"" => [""ACCCC"", ""AACCC"", ""ABCCC""], ""truth_table"" => []}",Sun Dec 01 2019 10:40:29 GMT+0000 (GMT),1575196829269,1|1|1|1|1|1|1|1|1|1|1|1|1|1|1|1|1|1|1|1|1|1|1|1|1|1|1|0|0|0|0|0|0|0|0|0|1|1|1|0|0|0|0|0|0|0|0|0|1|1|1|0|0|0|0|0|0|0|0|0,9.052416666666666,main_trials,2
416,,11676,44,all|most|some|none,all|most|some|none,right|wrong,5,,high,placeholder,Higher Degree,1575197372414,placeholder,10,male,English,5c6dab5f5d81110001e1934a,Describe these results of <strong>Green Valley</strong> so as to make it appear as if there is a <strong>high</strong> success rate without lying.,most|all|right,12|12|12|0|0,In this exam,of the students got,of the questions,.,9,"%{""instances"" => [%{""n_col"" => 12, ""rows"" => [12, 12, 12, 0, 0]}], ""number"" => 9, ""sequence"" => [""AAADD"", ""AAAAD"", ""AAABD"", ""AAACD""], ""truth_table"" => []}",Sun Dec 01 2019 10:40:29 GMT+0000 (GMT),1575196829269,1|1|1|1|1|1|1|1|1|1|1|1|1|1|1|1|1|1|1|1|1|1|1|1|1|1|1|1|1|1|1|1|1|1|1|1|0|0|0|0|0|0|0|0|0|0|0|0|0|0|0|0|0|0|0|0|0|0|0|0,9.052416666666666,main_trials,3
416,,13496,44,all|most|some|none,all|most|some|none,right|wrong,5,,high,placeholder,Higher Degree,1575197372414,placeholder,10,male,English,5c6dab5f5d81110001e1934a,Describe these results of <strong>Green Valley</strong> so as to make it appear as if there is a <strong>high</strong> success rate without lying.,most|most|right,12|12|9|0|0,In this exam,of the students got,of the questions,.,8,"%{""instances"" => [%{""n_col"" => 12, ""rows"" => [12, 12, 9, 0, 0]}], ""number"" => 8, ""sequence"" => [""ABBBD"", ""ABBDD"", ""AABDD"", ""ABBBD"", ""ABBCD"", ""AABCD""], ""truth_table"" => []}",Sun Dec 01 2019 10:40:29 GMT+0000 (GMT),1575196829269,1|1|1|1|1|1|1|1|1|1|1|1|1|1|1|1|1|1|1|1|1|1|1|1|1|1|1|1|1|1|1|1|1|0|0|0|0|0|0|0|0|0|0|0|0|0|0|0|0|0|0|0|0|0|0|0|0|0|0|0,9.052416666666666,main_trials,4
416,,9503,44,all|most|some|none,all|most|some|none,right|wrong,5,,low,placeholder,Higher Degree,1575197372414,placeholder,10,male,English,5c6dab5f5d81110001e1934a,Describe these results of <strong>Riverside</strong> so as to make it appear as if there is a <strong>low</strong> success rate without lying.,all|some|wrong,9|9|9|3|3,In this exam,of the students got,of the questions,.,14,"%{""instances"" => [%{""n_col"" => 12, ""rows"" => [9, 9, 9, 3, 3]}], ""number"" => 14, ""sequence"" => [""BBBCC"", ""BBBBC""], ""truth_table"" => []}",Sun Dec 01 2019 10:40:29 GMT+0000 (GMT),1575196829269,1|1|1|1|1|1|1|1|1|0|0|0|1|1|1|1|1|1|1|1|1|0|0|0|1|1|1|1|1|1|1|1|1|0|0|0|1|1|1|0|0|0|0|0|0|0|0|0|1|1|1|0|0|0|0|0|0|0|0|0,9.052416666666666,main_trials,5
