submission_id,QUD,RT,age,choice_options_1,choice_options_2,choice_options_3,column_number,comments,condition,correct,education,endTime,expected,experiment_id,gender,languages,prolific_id,question,response,row_number,sentence_chunk_1,sentence_chunk_2,sentence_chunk_3,sentence_chunk_4,sitation_number,situation,startDate,startTime,stimulus,timeSpent,trial_name,trial_number
461,,121276,54,all|most|some|none,all|most|some|none,right|wrong,5,,high,placeholder,Graduated College,1575217107739,placeholder,10,female,English,5bd7971b0aac450001f951aa,Describe these results of <strong>Green Valley</strong> so as to make it appear as if there is a <strong>high</strong> success rate without lying.,some|some|right,12|12|0|0|0,In this exam,of the students got,of the questions,.,4,"%{""instances"" => [%{""n_col"" => 12, ""rows"" => [12, 12, 0, 0, 0]}], ""number"" => 4, ""sequence"" => [""ADDDD"", ""AADDD"", ""ABDDD"", ""ACDDD""], ""truth_table"" => []}",Sun Dec 01 2019 09:41:48 GMT-0600 (Central Standard Time),1575214908413,1|1|1|1|1|1|1|1|1|1|1|1|1|1|1|1|1|1|1|1|1|1|1|1|0|0|0|0|0|0|0|0|0|0|0|0|0|0|0|0|0|0|0|0|0|0|0|0|0|0|0|0|0|0|0|0|0|0|0|0,36.655433333333335,training_trials,1
461,,63401,54,all|most|some|none,all|most|some|none,right|wrong,5,,low,placeholder,Graduated College,1575217107739,placeholder,10,female,English,5bd7971b0aac450001f951aa,Describe these results of <strong>Riverside</strong> so as to make it appear as if there is a <strong>low</strong> success rate without lying.,most|most|wrong,12|12|0|0|0,In this exam,of the students got,of the questions,.,4,"%{""instances"" => [%{""n_col"" => 12, ""rows"" => [12, 12, 0, 0, 0]}], ""number"" => 4, ""sequence"" => [""ADDDD"", ""AADDD"", ""ABDDD"", ""ACDDD""], ""truth_table"" => []}",Sun Dec 01 2019 09:41:48 GMT-0600 (Central Standard Time),1575214908413,1|1|1|1|1|1|1|1|1|1|1|1|1|1|1|1|1|1|1|1|1|1|1|1|0|0|0|0|0|0|0|0|0|0|0|0|0|0|0|0|0|0|0|0|0|0|0|0|0|0|0|0|0|0|0|0|0|0|0|0,36.655433333333335,training_trials,2
461,,69749,54,all|most|some|none,all|most|some|none,right|wrong,5,,high,placeholder,Graduated College,1575217107739,placeholder,10,female,English,5bd7971b0aac450001f951aa,Describe these results of <strong>Green Valley</strong> so as to make it appear as if there is a <strong>high</strong> success rate without lying.,most|most|right,9|9|3|3|3,In this exam,of the students got,of the questions,.,12,"%{""instances"" => [%{""n_col"" => 12, ""rows"" => [9, 9, 3, 3, 3]}], ""number"" => 12, ""sequence"" => [""BCCCC"", ""BBCCC""], ""truth_table"" => []}",Sun Dec 01 2019 09:41:48 GMT-0600 (Central Standard Time),1575214908413,1|1|1|1|1|1|1|1|1|0|0|0|1|1|1|1|1|1|1|1|1|0|0|0|1|1|1|0|0|0|0|0|0|0|0|0|1|1|1|0|0|0|0|0|0|0|0|0|1|1|1|0|0|0|0|0|0|0|0|0,36.655433333333335,training_trials,3
461,,111155,54,all|most|some|none,all|most|some|none,right|wrong,5,,low,placeholder,Graduated College,1575217107739,placeholder,10,female,English,5bd7971b0aac450001f951aa,Describe these results of <strong>Riverside</strong> so as to make it appear as if there is a <strong>low</strong> success rate without lying.,most|some|wrong,9|9|3|3|3,In this exam,of the students got,of the questions,.,12,"%{""instances"" => [%{""n_col"" => 12, ""rows"" => [9, 9, 3, 3, 3]}], ""number"" => 12, ""sequence"" => [""BCCCC"", ""BBCCC""], ""truth_table"" => []}",Sun Dec 01 2019 09:41:48 GMT-0600 (Central Standard Time),1575214908413,1|1|1|1|1|1|1|1|1|0|0|0|1|1|1|1|1|1|1|1|1|0|0|0|1|1|1|0|0|0|0|0|0|0|0|0|1|1|1|0|0|0|0|0|0|0|0|0|1|1|1|0|0|0|0|0|0|0|0|0,36.655433333333335,training_trials,4
461,,60187,54,all|most|some|none,all|most|some|none,right|wrong,5,,high,placeholder,Graduated College,1575217107739,placeholder,10,female,English,5bd7971b0aac450001f951aa,Describe these results of <strong>Green Valley</strong> so as to make it appear as if there is a <strong>high</strong> success rate without lying.,all|some|right,9|9|3|3|3,In this exam,of the students got,of the questions,.,12,"%{""instances"" => [%{""n_col"" => 12, ""rows"" => [9, 9, 3, 3, 3]}], ""number"" => 12, ""sequence"" => [""BCCCC"", ""BBCCC""], ""truth_table"" => []}",Sun Dec 01 2019 09:41:48 GMT-0600 (Central Standard Time),1575214908413,1|1|1|1|1|1|1|1|1|0|0|0|1|1|1|1|1|1|1|1|1|0|0|0|1|1|1|0|0|0|0|0|0|0|0|0|1|1|1|0|0|0|0|0|0|0|0|0|1|1|1|0|0|0|0|0|0|0|0|0,36.655433333333335,main_trials,1
461,,106738,54,all|most|some|none,all|most|some|none,right|wrong,5,,low,placeholder,Graduated College,1575217107739,placeholder,10,female,English,5bd7971b0aac450001f951aa,Describe these results of <strong>Riverside</strong> so as to make it appear as if there is a <strong>low</strong> success rate without lying.,some|some|wrong,12|12|12|9|9,In this exam,of the students got,of the questions,.,19,"%{""instances"" => [%{""n_col"" => 12, ""rows"" => '\f\f\f\t\t'}], ""number"" => 19, ""sequence"" => [""AAABB"", ""AAAAB""], ""truth_table"" => []}",Sun Dec 01 2019 09:41:48 GMT-0600 (Central Standard Time),1575214908413,1|1|1|1|1|1|1|1|1|1|1|1|1|1|1|1|1|1|1|1|1|1|1|1|1|1|1|1|1|1|1|1|1|1|1|1|1|1|1|1|1|1|1|1|1|0|0|0|1|1|1|1|1|1|1|1|1|0|0|0,36.655433333333335,main_trials,2
461,,38166,54,all|most|some|none,all|most|some|none,right|wrong,5,,high,placeholder,Graduated College,1575217107739,placeholder,10,female,English,5bd7971b0aac450001f951aa,Describe these results of <strong>Green Valley</strong> so as to make it appear as if there is a <strong>high</strong> success rate without lying.,all|most|right,12|12|9|9|9,In this exam,of the students got,of the questions,.,18,"%{""instances"" => [%{""n_col"" => 12, ""rows"" => '\f\f\t\t\t'}], ""number"" => 18, ""sequence"" => [""ABBBB"", ""AABBB""], ""truth_table"" => []}",Sun Dec 01 2019 09:41:48 GMT-0600 (Central Standard Time),1575214908413,1|1|1|1|1|1|1|1|1|1|1|1|1|1|1|1|1|1|1|1|1|1|1|1|1|1|1|1|1|1|1|1|1|0|0|0|1|1|1|1|1|1|1|1|1|0|0|0|1|1|1|1|1|1|1|1|1|0|0|0,36.655433333333335,main_trials,3
461,,56845,54,all|most|some|none,all|most|some|none,right|wrong,5,,low,placeholder,Graduated College,1575217107739,placeholder,10,female,English,5bd7971b0aac450001f951aa,Describe these results of <strong>Riverside</strong> so as to make it appear as if there is a <strong>low</strong> success rate without lying.,some|some|wrong,12|12|3|0|0,In this exam,of the students got,of the questions,.,1,"%{""instances"" => [%{""n_col"" => 12, ""rows"" => [12, 12, 3, 0, 0]}], ""number"" => 1, ""sequence"" => [""ACCCD"", ""ACCDD"", ""AACDD"", ""AACCD"", ""ABCDD"", ""ABCCD""], ""truth_table"" => []}",Sun Dec 01 2019 09:41:48 GMT-0600 (Central Standard Time),1575214908413,1|1|1|1|1|1|1|1|1|1|1|1|1|1|1|1|1|1|1|1|1|1|1|1|1|1|1|0|0|0|0|0|0|0|0|0|0|0|0|0|0|0|0|0|0|0|0|0|0|0|0|0|0|0|0|0|0|0|0|0,36.655433333333335,main_trials,4
461,,95289,54,all|most|some|none,all|most|some|none,right|wrong,5,,low,placeholder,Graduated College,1575217107739,placeholder,10,female,English,5bd7971b0aac450001f951aa,Describe these results of <strong>Riverside</strong> so as to make it appear as if there is a <strong>low</strong> success rate without lying.,some|some|wrong,12|12|12|3|3,In this exam,of the students got,of the questions,.,16,"%{""instances"" => [%{""n_col"" => 12, ""rows"" => [12, 12, 12, 3, 3]}], ""number"" => 16, ""sequence"" => [""AAACC"", ""AAAAC"", ""AAABC""], ""truth_table"" => []}",Sun Dec 01 2019 09:41:48 GMT-0600 (Central Standard Time),1575214908413,1|1|1|1|1|1|1|1|1|1|1|1|1|1|1|1|1|1|1|1|1|1|1|1|1|1|1|1|1|1|1|1|1|1|1|1|1|1|1|0|0|0|0|0|0|0|0|0|1|1|1|0|0|0|0|0|0|0|0|0,36.655433333333335,main_trials,5
461,,56788,54,all|most|some|none,all|most|some|none,right|wrong,5,,low,placeholder,Graduated College,1575217107739,placeholder,10,female,English,5bd7971b0aac450001f951aa,Describe these results of <strong>Riverside</strong> so as to make it appear as if there is a <strong>low</strong> success rate without lying.,some|some|wrong,12|12|12|0|0,In this exam,of the students got,of the questions,.,9,"%{""instances"" => [%{""n_col"" => 12, ""rows"" => [12, 12, 12, 0, 0]}], ""number"" => 9, ""sequence"" => [""AAADD"", ""AAAAD"", ""AAABD"", ""AAACD""], ""truth_table"" => []}",Sun Dec 01 2019 09:41:48 GMT-0600 (Central Standard Time),1575214908413,1|1|1|1|1|1|1|1|1|1|1|1|1|1|1|1|1|1|1|1|1|1|1|1|1|1|1|1|1|1|1|1|1|1|1|1|0|0|0|0|0|0|0|0|0|0|0|0|0|0|0|0|0|0|0|0|0|0|0|0,36.655433333333335,main_trials,6
461,,87075,54,all|most|some|none,all|most|some|none,right|wrong,5,,low,placeholder,Graduated College,1575217107739,placeholder,10,female,English,5bd7971b0aac450001f951aa,Describe these results of <strong>Riverside</strong> so as to make it appear as if there is a <strong>low</strong> success rate without lying.,most|most|wrong,9|9|9|0|0,In this exam,of the students got,of the questions,.,7,"%{""instances"" => [%{""n_col"" => 12, ""rows"" => [9, 9, 9, 0, 0]}], ""number"" => 7, ""sequence"" => [""BBBDD"", ""BBBBD"", ""BBBCD""], ""truth_table"" => []}",Sun Dec 01 2019 09:41:48 GMT-0600 (Central Standard Time),1575214908413,1|1|1|1|1|1|1|1|1|0|0|0|1|1|1|1|1|1|1|1|1|0|0|0|1|1|1|1|1|1|1|1|1|0|0|0|0|0|0|0|0|0|0|0|0|0|0|0|0|0|0|0|0|0|0|0|0|0|0|0,36.655433333333335,main_trials,7
461,,161665,54,all|most|some|none,all|most|some|none,right|wrong,5,,high,placeholder,Graduated College,1575217107739,placeholder,10,female,English,5bd7971b0aac450001f951aa,Describe these results of <strong>Green Valley</strong> so as to make it appear as if there is a <strong>high</strong> success rate without lying.,most|most|right,12|12|9|3|3,In this exam,of the students got,of the questions,.,15,"%{""instances"" => [%{""n_col"" => 12, ""rows"" => [12, 12, 9, 3, 3]}], ""number"" => 15, ""sequence"" => [""ABBBC"", ""ABBCC"", ""AABCC"", ""AABBC""], ""truth_table"" => []}",Sun Dec 01 2019 09:41:48 GMT-0600 (Central Standard Time),1575214908413,1|1|1|1|1|1|1|1|1|1|1|1|1|1|1|1|1|1|1|1|1|1|1|1|1|1|1|1|1|1|1|1|1|0|0|0|1|1|1|0|0|0|0|0|0|0|0|0|1|1|1|0|0|0|0|0|0|0|0|0,36.655433333333335,main_trials,8
461,,47752,54,all|most|some|none,all|most|some|none,right|wrong,5,,low,placeholder,Graduated College,1575217107739,placeholder,10,female,English,5bd7971b0aac450001f951aa,Describe these results of <strong>Riverside</strong> so as to make it appear as if there is a <strong>low</strong> success rate without lying.,most|most|wrong,9|9|0|0|0,In this exam,of the students got,of the questions,.,3,"%{""instances"" => [%{""n_col"" => 12, ""rows"" => [9, 9, 0, 0, 0]}], ""number"" => 3, ""sequence"" => [""BDDDD"", ""BBDDD"", ""BCDDD""], ""truth_table"" => []}",Sun Dec 01 2019 09:41:48 GMT-0600 (Central Standard Time),1575214908413,1|1|1|1|1|1|1|1|1|0|0|0|1|1|1|1|1|1|1|1|1|0|0|0|0|0|0|0|0|0|0|0|0|0|0|0|0|0|0|0|0|0|0|0|0|0|0|0|0|0|0|0|0|0|0|0|0|0|0|0,36.655433333333335,main_trials,9
461,,53759,54,all|most|some|none,all|most|some|none,right|wrong,5,,high,placeholder,Graduated College,1575217107739,placeholder,10,female,English,5bd7971b0aac450001f951aa,Describe these results of <strong>Green Valley</strong> so as to make it appear as if there is a <strong>high</strong> success rate without lying.,some|some|right,3|3|0|0|0,In this exam,of the students got,of the questions,.,2,"%{""instances"" => [%{""n_col"" => 12, ""rows"" => [3, 3, 0, 0, 0]}], ""number"" => 2, ""sequence"" => [""CDDDD"", ""CCDDD""], ""truth_table"" => []}",Sun Dec 01 2019 09:41:48 GMT-0600 (Central Standard Time),1575214908413,1|1|1|0|0|0|0|0|0|0|0|0|1|1|1|0|0|0|0|0|0|0|0|0|0|0|0|0|0|0|0|0|0|0|0|0|0|0|0|0|0|0|0|0|0|0|0|0|0|0|0|0|0|0|0|0|0|0|0|0,36.655433333333335,main_trials,10
461,,78118,54,all|most|some|none,all|most|some|none,right|wrong,5,,high,placeholder,Graduated College,1575217107739,placeholder,10,female,English,5bd7971b0aac450001f951aa,Describe these results of <strong>Green Valley</strong> so as to make it appear as if there is a <strong>high</strong> success rate without lying.,most|some|right,9|9|9|3|3,In this exam,of the students got,of the questions,.,14,"%{""instances"" => [%{""n_col"" => 12, ""rows"" => [9, 9, 9, 3, 3]}], ""number"" => 14, ""sequence"" => [""BBBCC"", ""BBBBC""], ""truth_table"" => []}",Sun Dec 01 2019 09:41:48 GMT-0600 (Central Standard Time),1575214908413,1|1|1|1|1|1|1|1|1|0|0|0|1|1|1|1|1|1|1|1|1|0|0|0|1|1|1|1|1|1|1|1|1|0|0|0|1|1|1|0|0|0|0|0|0|0|0|0|1|1|1|0|0|0|0|0|0|0|0|0,36.655433333333335,main_trials,11
461,,44819,54,all|most|some|none,all|most|some|none,right|wrong,5,,low,placeholder,Graduated College,1575217107739,placeholder,10,female,English,5bd7971b0aac450001f951aa,Describe these results of <strong>Riverside</strong> so as to make it appear as if there is a <strong>low</strong> success rate without lying.,most|most|wrong,3|3|3|0|0,In this exam,of the students got,of the questions,.,5,"%{""instances"" => [%{""n_col"" => 12, ""rows"" => [3, 3, 3, 0, 0]}], ""number"" => 5, ""sequence"" => [""CCCDD"", ""CCCCD""], ""truth_table"" => []}",Sun Dec 01 2019 09:41:48 GMT-0600 (Central Standard Time),1575214908413,1|1|1|0|0|0|0|0|0|0|0|0|1|1|1|0|0|0|0|0|0|0|0|0|1|1|1|0|0|0|0|0|0|0|0|0|0|0|0|0|0|0|0|0|0|0|0|0|0|0|0|0|0|0|0|0|0|0|0|0,36.655433333333335,main_trials,12
461,,59987,54,all|most|some|none,all|most|some|none,right|wrong,5,,low,placeholder,Graduated College,1575217107739,placeholder,10,female,English,5bd7971b0aac450001f951aa,Describe these results of <strong>Riverside</strong> so as to make it appear as if there is a <strong>low</strong> success rate without lying.,all|some|wrong,9|9|9|9|9,In this exam,of the students got,of the questions,.,17,"%{""instances"" => [%{""n_col"" => 12, ""rows"" => '\t\t\t\t\t'}], ""number"" => 17, ""sequence"" => [""BBBBB""], ""truth_table"" => []}",Sun Dec 01 2019 09:41:48 GMT-0600 (Central Standard Time),1575214908413,1|1|1|1|1|1|1|1|1|0|0|0|1|1|1|1|1|1|1|1|1|0|0|0|1|1|1|1|1|1|1|1|1|0|0|0|1|1|1|1|1|1|1|1|1|0|0|0|1|1|1|1|1|1|1|1|1|0|0|0,36.655433333333335,main_trials,13
461,,159268,54,all|most|some|none,all|most|some|none,right|wrong,5,,high,placeholder,Graduated College,1575217107739,placeholder,10,female,English,5bd7971b0aac450001f951aa,Describe these results of <strong>Green Valley</strong> so as to make it appear as if there is a <strong>high</strong> success rate without lying.,some|most|right,9|9|3|0|0,In this exam,of the students got,of the questions,.,6,"%{""instances"" => [%{""n_col"" => 12, ""rows"" => [9, 9, 3, 0, 0]}], ""number"" => 6, ""sequence"" => [""BCCCD"", ""BCCDD"", ""BBCDD"", ""BBCCD""], ""truth_table"" => []}",Sun Dec 01 2019 09:41:48 GMT-0600 (Central Standard Time),1575214908413,1|1|1|1|1|1|1|1|1|0|0|0|1|1|1|1|1|1|1|1|1|0|0|0|1|1|1|0|0|0|0|0|0|0|0|0|0|0|0|0|0|0|0|0|0|0|0|0|0|0|0|0|0|0|0|0|0|0|0|0,36.655433333333335,main_trials,14
461,,23067,54,all|most|some|none,all|most|some|none,right|wrong,5,,high,placeholder,Graduated College,1575217107739,placeholder,10,female,English,5bd7971b0aac450001f951aa,Describe these results of <strong>Green Valley</strong> so as to make it appear as if there is a <strong>high</strong> success rate without lying.,all|all|right,12|12|12|12|12,In this exam,of the students got,of the questions,.,20,"%{""instances"" => [%{""n_col"" => 12, ""rows"" => '\f\f\f\f\f'}], ""number"" => 20, ""sequence"" => [""AAAAA""], ""truth_table"" => []}",Sun Dec 01 2019 09:41:48 GMT-0600 (Central Standard Time),1575214908413,1|1|1|1|1|1|1|1|1|1|1|1|1|1|1|1|1|1|1|1|1|1|1|1|1|1|1|1|1|1|1|1|1|1|1|1|1|1|1|1|1|1|1|1|1|1|1|1|1|1|1|1|1|1|1|1|1|1|1|1,36.655433333333335,main_trials,15
461,,27862,54,all|most|some|none,all|most|some|none,right|wrong,5,,low,placeholder,Graduated College,1575217107739,placeholder,10,female,English,5bd7971b0aac450001f951aa,Describe these results of <strong>Riverside</strong> so as to make it appear as if there is a <strong>low</strong> success rate without lying.,all|most|wrong,3|3|3|3|3,In this exam,of the students got,of the questions,.,11,"%{""instances"" => [%{""n_col"" => 12, ""rows"" => [3, 3, 3, 3, 3]}], ""number"" => 11, ""sequence"" => [""CCCCC""], ""truth_table"" => []}",Sun Dec 01 2019 09:41:48 GMT-0600 (Central Standard Time),1575214908413,1|1|1|0|0|0|0|0|0|0|0|0|1|1|1|0|0|0|0|0|0|0|0|0|1|1|1|0|0|0|0|0|0|0|0|0|1|1|1|0|0|0|0|0|0|0|0|0|1|1|1|0|0|0|0|0|0|0|0|0,36.655433333333335,main_trials,16
461,,106018,54,all|most|some|none,all|most|some|none,right|wrong,5,,high,placeholder,Graduated College,1575217107739,placeholder,10,female,English,5bd7971b0aac450001f951aa,Describe these results of <strong>Green Valley</strong> so as to make it appear as if there is a <strong>high</strong> success rate without lying.,most|some|right,12|12|9|0|0,In this exam,of the students got,of the questions,.,8,"%{""instances"" => [%{""n_col"" => 12, ""rows"" => [12, 12, 9, 0, 0]}], ""number"" => 8, ""sequence"" => [""ABBBD"", ""ABBDD"", ""AABDD"", ""ABBBD"", ""ABBCD"", ""AABCD""], ""truth_table"" => []}",Sun Dec 01 2019 09:41:48 GMT-0600 (Central Standard Time),1575214908413,1|1|1|1|1|1|1|1|1|1|1|1|1|1|1|1|1|1|1|1|1|1|1|1|1|1|1|1|1|1|1|1|1|0|0|0|0|0|0|0|0|0|0|0|0|0|0|0|0|0|0|0|0|0|0|0|0|0|0|0,36.655433333333335,main_trials,17
461,,65552,54,all|most|some|none,all|most|some|none,right|wrong,5,,low,placeholder,Graduated College,1575217107739,placeholder,10,female,English,5bd7971b0aac450001f951aa,Describe these results of <strong>Riverside</strong> so as to make it appear as if there is a <strong>low</strong> success rate without lying.,some|most|wrong,12|12|3|3|3,In this exam,of the students got,of the questions,.,13,"%{""instances"" => [%{""n_col"" => 12, ""rows"" => [12, 12, 3, 3, 3]}], ""number"" => 13, ""sequence"" => [""ACCCC"", ""AACCC"", ""ABCCC""], ""truth_table"" => []}",Sun Dec 01 2019 09:41:48 GMT-0600 (Central Standard Time),1575214908413,1|1|1|1|1|1|1|1|1|1|1|1|1|1|1|1|1|1|1|1|1|1|1|1|1|1|1|0|0|0|0|0|0|0|0|0|1|1|1|0|0|0|0|0|0|0|0|0|1|1|1|0|0|0|0|0|0|0|0|0,36.655433333333335,main_trials,18
461,,99609,54,all|most|some|none,all|most|some|none,right|wrong,5,,high,placeholder,Graduated College,1575217107739,placeholder,10,female,English,5bd7971b0aac450001f951aa,Describe these results of <strong>Green Valley</strong> so as to make it appear as if there is a <strong>high</strong> success rate without lying.,none|all|right,0|0|0|0|0,In this exam,of the students got,of the questions,.,10,"%{""instances"" => [%{""n_col"" => 12, ""rows"" => [0, 0, 0, 0, 0]}], ""number"" => 10, ""sequence"" => [""DDDDD""], ""truth_table"" => []}",Sun Dec 01 2019 09:41:48 GMT-0600 (Central Standard Time),1575214908413,0|0|0|0|0|0|0|0|0|0|0|0|0|0|0|0|0|0|0|0|0|0|0|0|0|0|0|0|0|0|0|0|0|0|0|0|0|0|0|0|0|0|0|0|0|0|0|0|0|0|0|0|0|0|0|0|0|0|0|0,36.655433333333335,main_trials,19
461,,73378,54,all|most|some|none,all|most|some|none,right|wrong,5,,high,placeholder,Graduated College,1575217107739,placeholder,10,female,English,5bd7971b0aac450001f951aa,Describe these results of <strong>Green Valley</strong> so as to make it appear as if there is a <strong>high</strong> success rate without lying.,some|all|right,12|12|0|0|0,In this exam,of the students got,of the questions,.,4,"%{""instances"" => [%{""n_col"" => 12, ""rows"" => [12, 12, 0, 0, 0]}], ""number"" => 4, ""sequence"" => [""ADDDD"", ""AADDD"", ""ABDDD"", ""ACDDD""], ""truth_table"" => []}",Sun Dec 01 2019 09:41:48 GMT-0600 (Central Standard Time),1575214908413,1|1|1|1|1|1|1|1|1|1|1|1|1|1|1|1|1|1|1|1|1|1|1|1|0|0|0|0|0|0|0|0|0|0|0|0|0|0|0|0|0|0|0|0|0|0|0|0|0|0|0|0|0|0|0|0|0|0|0|0,36.655433333333335,main_trials,20
460,,26330,27,all|most|some|none,all|most|some|none,right|wrong,5,,high,placeholder,Higher Degree,1575216114009,placeholder,10,male,English,5d6da6447ef31f001e90d985,Describe these results of <strong>Green Valley</strong> so as to make it appear as if there is a <strong>high</strong> success rate without lying.,some|all|right,12|12|0|0|0,In this exam,of the students got,of the questions,.,4,"%{""instances"" => [%{""n_col"" => 12, ""rows"" => [12, 12, 0, 0, 0]}], ""number"" => 4, ""sequence"" => [""ADDDD"", ""AADDD"", ""ABDDD"", ""ACDDD""], ""truth_table"" => []}",Sun Dec 01 2019 15:55:23 GMT+0000 (Greenwich Mean Time),1575215723462,1|1|1|1|1|1|1|1|1|1|1|1|1|1|1|1|1|1|1|1|1|1|1|1|0|0|0|0|0|0|0|0|0|0|0|0|0|0|0|0|0|0|0|0|0|0|0|0|0|0|0|0|0|0|0|0|0|0|0|0,6.509116666666666,training_trials,1
460,,15346,27,all|most|some|none,all|most|some|none,right|wrong,5,,low,placeholder,Higher Degree,1575216114009,placeholder,10,male,English,5d6da6447ef31f001e90d985,Describe these results of <strong>Riverside</strong> so as to make it appear as if there is a <strong>low</strong> success rate without lying.,most|all|wrong,12|12|0|0|0,In this exam,of the students got,of the questions,.,4,"%{""instances"" => [%{""n_col"" => 12, ""rows"" => [12, 12, 0, 0, 0]}], ""number"" => 4, ""sequence"" => [""ADDDD"", ""AADDD"", ""ABDDD"", ""ACDDD""], ""truth_table"" => []}",Sun Dec 01 2019 15:55:23 GMT+0000 (Greenwich Mean Time),1575215723462,1|1|1|1|1|1|1|1|1|1|1|1|1|1|1|1|1|1|1|1|1|1|1|1|0|0|0|0|0|0|0|0|0|0|0|0|0|0|0|0|0|0|0|0|0|0|0|0|0|0|0|0|0|0|0|0|0|0|0|0,6.509116666666666,training_trials,2
460,,14398,27,all|most|some|none,all|most|some|none,right|wrong,5,,high,placeholder,Higher Degree,1575216114009,placeholder,10,male,English,5d6da6447ef31f001e90d985,Describe these results of <strong>Green Valley</strong> so as to make it appear as if there is a <strong>high</strong> success rate without lying.,some|most|right,9|9|3|3|3,In this exam,of the students got,of the questions,.,12,"%{""instances"" => [%{""n_col"" => 12, ""rows"" => [9, 9, 3, 3, 3]}], ""number"" => 12, ""sequence"" => [""BCCCC"", ""BBCCC""], ""truth_table"" => []}",Sun Dec 01 2019 15:55:23 GMT+0000 (Greenwich Mean Time),1575215723462,1|1|1|1|1|1|1|1|1|0|0|0|1|1|1|1|1|1|1|1|1|0|0|0|1|1|1|0|0|0|0|0|0|0|0|0|1|1|1|0|0|0|0|0|0|0|0|0|1|1|1|0|0|0|0|0|0|0|0|0,6.509116666666666,training_trials,3
460,,11081,27,all|most|some|none,all|most|some|none,right|wrong,5,,low,placeholder,Higher Degree,1575216114009,placeholder,10,male,English,5d6da6447ef31f001e90d985,Describe these results of <strong>Riverside</strong> so as to make it appear as if there is a <strong>low</strong> success rate without lying.,some|most|wrong,9|9|3|3|3,In this exam,of the students got,of the questions,.,12,"%{""instances"" => [%{""n_col"" => 12, ""rows"" => [9, 9, 3, 3, 3]}], ""number"" => 12, ""sequence"" => [""BCCCC"", ""BBCCC""], ""truth_table"" => []}",Sun Dec 01 2019 15:55:23 GMT+0000 (Greenwich Mean Time),1575215723462,1|1|1|1|1|1|1|1|1|0|0|0|1|1|1|1|1|1|1|1|1|0|0|0|1|1|1|0|0|0|0|0|0|0|0|0|1|1|1|0|0|0|0|0|0|0|0|0|1|1|1|0|0|0|0|0|0|0|0|0,6.509116666666666,training_trials,4
460,,7131,27,all|most|some|none,all|most|some|none,right|wrong,5,,high,placeholder,Higher Degree,1575216114009,placeholder,10,male,English,5d6da6447ef31f001e90d985,Describe these results of <strong>Green Valley</strong> so as to make it appear as if there is a <strong>high</strong> success rate without lying.,some|most|right,9|9|0|0|0,In this exam,of the students got,of the questions,.,3,"%{""instances"" => [%{""n_col"" => 12, ""rows"" => [9, 9, 0, 0, 0]}], ""number"" => 3, ""sequence"" => [""BDDDD"", ""BBDDD"", ""BCDDD""], ""truth_table"" => []}",Sun Dec 01 2019 15:55:23 GMT+0000 (Greenwich Mean Time),1575215723462,1|1|1|1|1|1|1|1|1|0|0|0|1|1|1|1|1|1|1|1|1|0|0|0|0|0|0|0|0|0|0|0|0|0|0|0|0|0|0|0|0|0|0|0|0|0|0|0|0|0|0|0|0|0|0|0|0|0|0|0,6.509116666666666,main_trials,1
460,,9196,27,all|most|some|none,all|most|some|none,right|wrong,5,,low,placeholder,Higher Degree,1575216114009,placeholder,10,male,English,5d6da6447ef31f001e90d985,Describe these results of <strong>Riverside</strong> so as to make it appear as if there is a <strong>low</strong> success rate without lying.,most|most|right,12|12|9|3|3,In this exam,of the students got,of the questions,.,15,"%{""instances"" => [%{""n_col"" => 12, ""rows"" => [12, 12, 9, 3, 3]}], ""number"" => 15, ""sequence"" => [""ABBBC"", ""ABBCC"", ""AABCC"", ""AABBC""], ""truth_table"" => []}",Sun Dec 01 2019 15:55:23 GMT+0000 (Greenwich Mean Time),1575215723462,1|1|1|1|1|1|1|1|1|1|1|1|1|1|1|1|1|1|1|1|1|1|1|1|1|1|1|1|1|1|1|1|1|0|0|0|1|1|1|0|0|0|0|0|0|0|0|0|1|1|1|0|0|0|0|0|0|0|0|0,6.509116666666666,main_trials,2
460,,16699,27,all|most|some|none,all|most|some|none,right|wrong,5,,low,placeholder,Higher Degree,1575216114009,placeholder,10,male,English,5d6da6447ef31f001e90d985,Describe these results of <strong>Riverside</strong> so as to make it appear as if there is a <strong>low</strong> success rate without lying.,none|all|right,3|3|0|0|0,In this exam,of the students got,of the questions,.,2,"%{""instances"" => [%{""n_col"" => 12, ""rows"" => [3, 3, 0, 0, 0]}], ""number"" => 2, ""sequence"" => [""CDDDD"", ""CCDDD""], ""truth_table"" => []}",Sun Dec 01 2019 15:55:23 GMT+0000 (Greenwich Mean Time),1575215723462,1|1|1|0|0|0|0|0|0|0|0|0|1|1|1|0|0|0|0|0|0|0|0|0|0|0|0|0|0|0|0|0|0|0|0|0|0|0|0|0|0|0|0|0|0|0|0|0|0|0|0|0|0|0|0|0|0|0|0|0,6.509116666666666,main_trials,3
460,,4170,27,all|most|some|none,all|most|some|none,right|wrong,5,,high,placeholder,Higher Degree,1575216114009,placeholder,10,male,English,5d6da6447ef31f001e90d985,Describe these results of <strong>Green Valley</strong> so as to make it appear as if there is a <strong>high</strong> success rate without lying.,all|all|right,12|12|12|12|12,In this exam,of the students got,of the questions,.,20,"%{""instances"" => [%{""n_col"" => 12, ""rows"" => '\f\f\f\f\f'}], ""number"" => 20, ""sequence"" => [""AAAAA""], ""truth_table"" => []}",Sun Dec 01 2019 15:55:23 GMT+0000 (Greenwich Mean Time),1575215723462,1|1|1|1|1|1|1|1|1|1|1|1|1|1|1|1|1|1|1|1|1|1|1|1|1|1|1|1|1|1|1|1|1|1|1|1|1|1|1|1|1|1|1|1|1|1|1|1|1|1|1|1|1|1|1|1|1|1|1|1,6.509116666666666,main_trials,4
460,,8195,27,all|most|some|none,all|most|some|none,right|wrong,5,,high,placeholder,Higher Degree,1575216114009,placeholder,10,male,English,5d6da6447ef31f001e90d985,Describe these results of <strong>Green Valley</strong> so as to make it appear as if there is a <strong>high</strong> success rate without lying.,most|most|right,12|12|9|0|0,In this exam,of the students got,of the questions,.,8,"%{""instances"" => [%{""n_col"" => 12, ""rows"" => [12, 12, 9, 0, 0]}], ""number"" => 8, ""sequence"" => [""ABBBD"", ""ABBDD"", ""AABDD"", ""ABBBD"", ""ABBCD"", ""AABCD""], ""truth_table"" => []}",Sun Dec 01 2019 15:55:23 GMT+0000 (Greenwich Mean Time),1575215723462,1|1|1|1|1|1|1|1|1|1|1|1|1|1|1|1|1|1|1|1|1|1|1|1|1|1|1|1|1|1|1|1|1|0|0|0|0|0|0|0|0|0|0|0|0|0|0|0|0|0|0|0|0|0|0|0|0|0|0|0,6.509116666666666,main_trials,5
460,,6465,27,all|most|some|none,all|most|some|none,right|wrong,5,,high,placeholder,Higher Degree,1575216114009,placeholder,10,male,English,5d6da6447ef31f001e90d985,Describe these results of <strong>Green Valley</strong> so as to make it appear as if there is a <strong>high</strong> success rate without lying.,most|all|right,12|12|12|3|3,In this exam,of the students got,of the questions,.,16,"%{""instances"" => [%{""n_col"" => 12, ""rows"" => [12, 12, 12, 3, 3]}], ""number"" => 16, ""sequence"" => [""AAACC"", ""AAAAC"", ""AAABC""], ""truth_table"" => []}",Sun Dec 01 2019 15:55:23 GMT+0000 (Greenwich Mean Time),1575215723462,1|1|1|1|1|1|1|1|1|1|1|1|1|1|1|1|1|1|1|1|1|1|1|1|1|1|1|1|1|1|1|1|1|1|1|1|1|1|1|0|0|0|0|0|0|0|0|0|1|1|1|0|0|0|0|0|0|0|0|0,6.509116666666666,main_trials,6
460,,4518,27,all|most|some|none,all|most|some|none,right|wrong,5,,high,placeholder,Higher Degree,1575216114009,placeholder,10,male,English,5d6da6447ef31f001e90d985,Describe these results of <strong>Green Valley</strong> so as to make it appear as if there is a <strong>high</strong> success rate without lying.,most|most|right,9|9|9|9|9,In this exam,of the students got,of the questions,.,17,"%{""instances"" => [%{""n_col"" => 12, ""rows"" => '\t\t\t\t\t'}], ""number"" => 17, ""sequence"" => [""BBBBB""], ""truth_table"" => []}",Sun Dec 01 2019 15:55:23 GMT+0000 (Greenwich Mean Time),1575215723462,1|1|1|1|1|1|1|1|1|0|0|0|1|1|1|1|1|1|1|1|1|0|0|0|1|1|1|1|1|1|1|1|1|0|0|0|1|1|1|1|1|1|1|1|1|0|0|0|1|1|1|1|1|1|1|1|1|0|0|0,6.509116666666666,main_trials,7
460,,6520,27,all|most|some|none,all|most|some|none,right|wrong,5,,high,placeholder,Higher Degree,1575216114009,placeholder,10,male,English,5d6da6447ef31f001e90d985,Describe these results of <strong>Green Valley</strong> so as to make it appear as if there is a <strong>high</strong> success rate without lying.,most|most|right,9|9|9|0|0,In this exam,of the students got,of the questions,.,7,"%{""instances"" => [%{""n_col"" => 12, ""rows"" => [9, 9, 9, 0, 0]}], ""number"" => 7, ""sequence"" => [""BBBDD"", ""BBBBD"", ""BBBCD""], ""truth_table"" => []}",Sun Dec 01 2019 15:55:23 GMT+0000 (Greenwich Mean Time),1575215723462,1|1|1|1|1|1|1|1|1|0|0|0|1|1|1|1|1|1|1|1|1|0|0|0|1|1|1|1|1|1|1|1|1|0|0|0|0|0|0|0|0|0|0|0|0|0|0|0|0|0|0|0|0|0|0|0|0|0|0|0,6.509116666666666,main_trials,8
460,,8395,27,all|most|some|none,all|most|some|none,right|wrong,5,,low,placeholder,Higher Degree,1575216114009,placeholder,10,male,English,5d6da6447ef31f001e90d985,Describe these results of <strong>Riverside</strong> so as to make it appear as if there is a <strong>low</strong> success rate without lying.,most|most|wrong,9|9|3|3|3,In this exam,of the students got,of the questions,.,12,"%{""instances"" => [%{""n_col"" => 12, ""rows"" => [9, 9, 3, 3, 3]}], ""number"" => 12, ""sequence"" => [""BCCCC"", ""BBCCC""], ""truth_table"" => []}",Sun Dec 01 2019 15:55:23 GMT+0000 (Greenwich Mean Time),1575215723462,1|1|1|1|1|1|1|1|1|0|0|0|1|1|1|1|1|1|1|1|1|0|0|0|1|1|1|0|0|0|0|0|0|0|0|0|1|1|1|0|0|0|0|0|0|0|0|0|1|1|1|0|0|0|0|0|0|0|0|0,6.509116666666666,main_trials,9
460,,7959,27,all|most|some|none,all|most|some|none,right|wrong,5,,low,placeholder,Higher Degree,1575216114009,placeholder,10,male,English,5d6da6447ef31f001e90d985,Describe these results of <strong>Riverside</strong> so as to make it appear as if there is a <strong>low</strong> success rate without lying.,some|all|right,12|12|3|3|3,In this exam,of the students got,of the questions,.,13,"%{""instances"" => [%{""n_col"" => 12, ""rows"" => [12, 12, 3, 3, 3]}], ""number"" => 13, ""sequence"" => [""ACCCC"", ""AACCC"", ""ABCCC""], ""truth_table"" => []}",Sun Dec 01 2019 15:55:23 GMT+0000 (Greenwich Mean Time),1575215723462,1|1|1|1|1|1|1|1|1|1|1|1|1|1|1|1|1|1|1|1|1|1|1|1|1|1|1|0|0|0|0|0|0|0|0|0|1|1|1|0|0|0|0|0|0|0|0|0|1|1|1|0|0|0|0|0|0|0|0|0,6.509116666666666,main_trials,10
460,,8633,27,all|most|some|none,all|most|some|none,right|wrong,5,,high,placeholder,Higher Degree,1575216114009,placeholder,10,male,English,5d6da6447ef31f001e90d985,Describe these results of <strong>Green Valley</strong> so as to make it appear as if there is a <strong>high</strong> success rate without lying.,most|all|right,12|12|12|9|9,In this exam,of the students got,of the questions,.,19,"%{""instances"" => [%{""n_col"" => 12, ""rows"" => '\f\f\f\t\t'}], ""number"" => 19, ""sequence"" => [""AAABB"", ""AAAAB""], ""truth_table"" => []}",Sun Dec 01 2019 15:55:23 GMT+0000 (Greenwich Mean Time),1575215723462,1|1|1|1|1|1|1|1|1|1|1|1|1|1|1|1|1|1|1|1|1|1|1|1|1|1|1|1|1|1|1|1|1|1|1|1|1|1|1|1|1|1|1|1|1|0|0|0|1|1|1|1|1|1|1|1|1|0|0|0,6.509116666666666,main_trials,11
460,,6243,27,all|most|some|none,all|most|some|none,right|wrong,5,,low,placeholder,Higher Degree,1575216114009,placeholder,10,male,English,5d6da6447ef31f001e90d985,Describe these results of <strong>Riverside</strong> so as to make it appear as if there is a <strong>low</strong> success rate without lying.,most|all|wrong,12|12|0|0|0,In this exam,of the students got,of the questions,.,4,"%{""instances"" => [%{""n_col"" => 12, ""rows"" => [12, 12, 0, 0, 0]}], ""number"" => 4, ""sequence"" => [""ADDDD"", ""AADDD"", ""ABDDD"", ""ACDDD""], ""truth_table"" => []}",Sun Dec 01 2019 15:55:23 GMT+0000 (Greenwich Mean Time),1575215723462,1|1|1|1|1|1|1|1|1|1|1|1|1|1|1|1|1|1|1|1|1|1|1|1|0|0|0|0|0|0|0|0|0|0|0|0|0|0|0|0|0|0|0|0|0|0|0|0|0|0|0|0|0|0|0|0|0|0|0|0,6.509116666666666,main_trials,12
460,,6255,27,all|most|some|none,all|most|some|none,right|wrong,5,,high,placeholder,Higher Degree,1575216114009,placeholder,10,male,English,5d6da6447ef31f001e90d985,Describe these results of <strong>Green Valley</strong> so as to make it appear as if there is a <strong>high</strong> success rate without lying.,most|most|right,9|9|9|3|3,In this exam,of the students got,of the questions,.,14,"%{""instances"" => [%{""n_col"" => 12, ""rows"" => [9, 9, 9, 3, 3]}], ""number"" => 14, ""sequence"" => [""BBBCC"", ""BBBBC""], ""truth_table"" => []}",Sun Dec 01 2019 15:55:23 GMT+0000 (Greenwich Mean Time),1575215723462,1|1|1|1|1|1|1|1|1|0|0|0|1|1|1|1|1|1|1|1|1|0|0|0|1|1|1|1|1|1|1|1|1|0|0|0|1|1|1|0|0|0|0|0|0|0|0|0|1|1|1|0|0|0|0|0|0|0|0|0,6.509116666666666,main_trials,13
460,,5176,27,all|most|some|none,all|most|some|none,right|wrong,5,,low,placeholder,Higher Degree,1575216114009,placeholder,10,male,English,5d6da6447ef31f001e90d985,Describe these results of <strong>Riverside</strong> so as to make it appear as if there is a <strong>low</strong> success rate without lying.,all|all|wrong,0|0|0|0|0,In this exam,of the students got,of the questions,.,10,"%{""instances"" => [%{""n_col"" => 12, ""rows"" => [0, 0, 0, 0, 0]}], ""number"" => 10, ""sequence"" => [""DDDDD""], ""truth_table"" => []}",Sun Dec 01 2019 15:55:23 GMT+0000 (Greenwich Mean Time),1575215723462,0|0|0|0|0|0|0|0|0|0|0|0|0|0|0|0|0|0|0|0|0|0|0|0|0|0|0|0|0|0|0|0|0|0|0|0|0|0|0|0|0|0|0|0|0|0|0|0|0|0|0|0|0|0|0|0|0|0|0|0,6.509116666666666,main_trials,14
460,,7570,27,all|most|some|none,all|most|some|none,right|wrong,5,,low,placeholder,Higher Degree,1575216114009,placeholder,10,male,English,5d6da6447ef31f001e90d985,Describe these results of <strong>Riverside</strong> so as to make it appear as if there is a <strong>low</strong> success rate without lying.,all|most|wrong,3|3|3|3|3,In this exam,of the students got,of the questions,.,11,"%{""instances"" => [%{""n_col"" => 12, ""rows"" => [3, 3, 3, 3, 3]}], ""number"" => 11, ""sequence"" => [""CCCCC""], ""truth_table"" => []}",Sun Dec 01 2019 15:55:23 GMT+0000 (Greenwich Mean Time),1575215723462,1|1|1|0|0|0|0|0|0|0|0|0|1|1|1|0|0|0|0|0|0|0|0|0|1|1|1|0|0|0|0|0|0|0|0|0|1|1|1|0|0|0|0|0|0|0|0|0|1|1|1|0|0|0|0|0|0|0|0|0,6.509116666666666,main_trials,15
460,,13342,27,all|most|some|none,all|most|some|none,right|wrong,5,,low,placeholder,Higher Degree,1575216114009,placeholder,10,male,English,5d6da6447ef31f001e90d985,Describe these results of <strong>Riverside</strong> so as to make it appear as if there is a <strong>low</strong> success rate without lying.,most|most|wrong,12|12|3|0|0,In this exam,of the students got,of the questions,.,1,"%{""instances"" => [%{""n_col"" => 12, ""rows"" => [12, 12, 3, 0, 0]}], ""number"" => 1, ""sequence"" => [""ACCCD"", ""ACCDD"", ""AACDD"", ""AACCD"", ""ABCDD"", ""ABCCD""], ""truth_table"" => []}",Sun Dec 01 2019 15:55:23 GMT+0000 (Greenwich Mean Time),1575215723462,1|1|1|1|1|1|1|1|1|1|1|1|1|1|1|1|1|1|1|1|1|1|1|1|1|1|1|0|0|0|0|0|0|0|0|0|0|0|0|0|0|0|0|0|0|0|0|0|0|0|0|0|0|0|0|0|0|0|0|0,6.509116666666666,main_trials,16
460,,5637,27,all|most|some|none,all|most|some|none,right|wrong,5,,low,placeholder,Higher Degree,1575216114009,placeholder,10,male,English,5d6da6447ef31f001e90d985,Describe these results of <strong>Riverside</strong> so as to make it appear as if there is a <strong>low</strong> success rate without lying.,most|most|wrong,9|9|3|0|0,In this exam,of the students got,of the questions,.,6,"%{""instances"" => [%{""n_col"" => 12, ""rows"" => [9, 9, 3, 0, 0]}], ""number"" => 6, ""sequence"" => [""BCCCD"", ""BCCDD"", ""BBCDD"", ""BBCCD""], ""truth_table"" => []}",Sun Dec 01 2019 15:55:23 GMT+0000 (Greenwich Mean Time),1575215723462,1|1|1|1|1|1|1|1|1|0|0|0|1|1|1|1|1|1|1|1|1|0|0|0|1|1|1|0|0|0|0|0|0|0|0|0|0|0|0|0|0|0|0|0|0|0|0|0|0|0|0|0|0|0|0|0|0|0|0|0,6.509116666666666,main_trials,17
460,,9979,27,all|most|some|none,all|most|some|none,right|wrong,5,,high,placeholder,Higher Degree,1575216114009,placeholder,10,male,English,5d6da6447ef31f001e90d985,Describe these results of <strong>Green Valley</strong> so as to make it appear as if there is a <strong>high</strong> success rate without lying.,some|some|right,3|3|3|0|0,In this exam,of the students got,of the questions,.,5,"%{""instances"" => [%{""n_col"" => 12, ""rows"" => [3, 3, 3, 0, 0]}], ""number"" => 5, ""sequence"" => [""CCCDD"", ""CCCCD""], ""truth_table"" => []}",Sun Dec 01 2019 15:55:23 GMT+0000 (Greenwich Mean Time),1575215723462,1|1|1|0|0|0|0|0|0|0|0|0|1|1|1|0|0|0|0|0|0|0|0|0|1|1|1|0|0|0|0|0|0|0|0|0|0|0|0|0|0|0|0|0|0|0|0|0|0|0|0|0|0|0|0|0|0|0|0|0,6.509116666666666,main_trials,18
460,,9465,27,all|most|some|none,all|most|some|none,right|wrong,5,,high,placeholder,Higher Degree,1575216114009,placeholder,10,male,English,5d6da6447ef31f001e90d985,Describe these results of <strong>Green Valley</strong> so as to make it appear as if there is a <strong>high</strong> success rate without lying.,some|all|right,12|12|12|0|0,In this exam,of the students got,of the questions,.,9,"%{""instances"" => [%{""n_col"" => 12, ""rows"" => [12, 12, 12, 0, 0]}], ""number"" => 9, ""sequence"" => [""AAADD"", ""AAAAD"", ""AAABD"", ""AAACD""], ""truth_table"" => []}",Sun Dec 01 2019 15:55:23 GMT+0000 (Greenwich Mean Time),1575215723462,1|1|1|1|1|1|1|1|1|1|1|1|1|1|1|1|1|1|1|1|1|1|1|1|1|1|1|1|1|1|1|1|1|1|1|1|0|0|0|0|0|0|0|0|0|0|0|0|0|0|0|0|0|0|0|0|0|0|0|0,6.509116666666666,main_trials,19
460,,39652,27,all|most|some|none,all|most|some|none,right|wrong,5,,low,placeholder,Higher Degree,1575216114009,placeholder,10,male,English,5d6da6447ef31f001e90d985,Describe these results of <strong>Riverside</strong> so as to make it appear as if there is a <strong>low</strong> success rate without lying.,some|some|wrong,12|12|9|9|9,In this exam,of the students got,of the questions,.,18,"%{""instances"" => [%{""n_col"" => 12, ""rows"" => '\f\f\t\t\t'}], ""number"" => 18, ""sequence"" => [""ABBBB"", ""AABBB""], ""truth_table"" => []}",Sun Dec 01 2019 15:55:23 GMT+0000 (Greenwich Mean Time),1575215723462,1|1|1|1|1|1|1|1|1|1|1|1|1|1|1|1|1|1|1|1|1|1|1|1|1|1|1|1|1|1|1|1|1|0|0|0|1|1|1|1|1|1|1|1|1|0|0|0|1|1|1|1|1|1|1|1|1|0|0|0,6.509116666666666,main_trials,20
459,,20729,22,all|most|some|none,all|most|some|none,right|wrong,5,,high,placeholder,Graduated High School,1575216066472,placeholder,10,male,English,5bc9e924e642db0001d3a1c5,Describe these results of <strong>Green Valley</strong> so as to make it appear as if there is a <strong>high</strong> success rate without lying.,some|all|right,12|12|0|0|0,In this exam,of the students got,of the questions,.,4,"%{""instances"" => [%{""n_col"" => 12, ""rows"" => [12, 12, 0, 0, 0]}], ""number"" => 4, ""sequence"" => [""ADDDD"", ""AADDD"", ""ABDDD"", ""ACDDD""], ""truth_table"" => []}",Sun Dec 01 2019 15:37:48 GMT+0000 (Greenwich Mean Time),1575214668463,1|1|1|1|1|1|1|1|1|1|1|1|1|1|1|1|1|1|1|1|1|1|1|1|0|0|0|0|0|0|0|0|0|0|0|0|0|0|0|0|0|0|0|0|0|0|0|0|0|0|0|0|0|0|0|0|0|0|0|0,23.30015,training_trials,1
459,,8207,22,all|most|some|none,all|most|some|none,right|wrong,5,,low,placeholder,Graduated High School,1575216066472,placeholder,10,male,English,5bc9e924e642db0001d3a1c5,Describe these results of <strong>Riverside</strong> so as to make it appear as if there is a <strong>low</strong> success rate without lying.,most|all|wrong,12|12|0|0|0,In this exam,of the students got,of the questions,.,4,"%{""instances"" => [%{""n_col"" => 12, ""rows"" => [12, 12, 0, 0, 0]}], ""number"" => 4, ""sequence"" => [""ADDDD"", ""AADDD"", ""ABDDD"", ""ACDDD""], ""truth_table"" => []}",Sun Dec 01 2019 15:37:48 GMT+0000 (Greenwich Mean Time),1575214668463,1|1|1|1|1|1|1|1|1|1|1|1|1|1|1|1|1|1|1|1|1|1|1|1|0|0|0|0|0|0|0|0|0|0|0|0|0|0|0|0|0|0|0|0|0|0|0|0|0|0|0|0|0|0|0|0|0|0|0|0,23.30015,training_trials,2
459,,10146,22,all|most|some|none,all|most|some|none,right|wrong,5,,high,placeholder,Graduated High School,1575216066472,placeholder,10,male,English,5bc9e924e642db0001d3a1c5,Describe these results of <strong>Green Valley</strong> so as to make it appear as if there is a <strong>high</strong> success rate without lying.,some|most|right,9|9|3|3|3,In this exam,of the students got,of the questions,.,12,"%{""instances"" => [%{""n_col"" => 12, ""rows"" => [9, 9, 3, 3, 3]}], ""number"" => 12, ""sequence"" => [""BCCCC"", ""BBCCC""], ""truth_table"" => []}",Sun Dec 01 2019 15:37:48 GMT+0000 (Greenwich Mean Time),1575214668463,1|1|1|1|1|1|1|1|1|0|0|0|1|1|1|1|1|1|1|1|1|0|0|0|1|1|1|0|0|0|0|0|0|0|0|0|1|1|1|0|0|0|0|0|0|0|0|0|1|1|1|0|0|0|0|0|0|0|0|0,23.30015,training_trials,3
459,,8942,22,all|most|some|none,all|most|some|none,right|wrong,5,,low,placeholder,Graduated High School,1575216066472,placeholder,10,male,English,5bc9e924e642db0001d3a1c5,Describe these results of <strong>Riverside</strong> so as to make it appear as if there is a <strong>low</strong> success rate without lying.,most|most|wrong,9|9|3|3|3,In this exam,of the students got,of the questions,.,12,"%{""instances"" => [%{""n_col"" => 12, ""rows"" => [9, 9, 3, 3, 3]}], ""number"" => 12, ""sequence"" => [""BCCCC"", ""BBCCC""], ""truth_table"" => []}",Sun Dec 01 2019 15:37:48 GMT+0000 (Greenwich Mean Time),1575214668463,1|1|1|1|1|1|1|1|1|0|0|0|1|1|1|1|1|1|1|1|1|0|0|0|1|1|1|0|0|0|0|0|0|0|0|0|1|1|1|0|0|0|0|0|0|0|0|0|1|1|1|0|0|0|0|0|0|0|0|0,23.30015,training_trials,4
459,,10780,22,all|most|some|none,all|most|some|none,right|wrong,5,,low,placeholder,Graduated High School,1575216066472,placeholder,10,male,English,5bc9e924e642db0001d3a1c5,Describe these results of <strong>Riverside</strong> so as to make it appear as if there is a <strong>low</strong> success rate without lying.,some|all|wrong,12|12|12|0|0,In this exam,of the students got,of the questions,.,9,"%{""instances"" => [%{""n_col"" => 12, ""rows"" => [12, 12, 12, 0, 0]}], ""number"" => 9, ""sequence"" => [""AAADD"", ""AAAAD"", ""AAABD"", ""AAACD""], ""truth_table"" => []}",Sun Dec 01 2019 15:37:48 GMT+0000 (Greenwich Mean Time),1575214668463,1|1|1|1|1|1|1|1|1|1|1|1|1|1|1|1|1|1|1|1|1|1|1|1|1|1|1|1|1|1|1|1|1|1|1|1|0|0|0|0|0|0|0|0|0|0|0|0|0|0|0|0|0|0|0|0|0|0|0|0,23.30015,main_trials,1
459,,10690,22,all|most|some|none,all|most|some|none,right|wrong,5,,low,placeholder,Graduated High School,1575216066472,placeholder,10,male,English,5bc9e924e642db0001d3a1c5,Describe these results of <strong>Riverside</strong> so as to make it appear as if there is a <strong>low</strong> success rate without lying.,some|most|wrong,9|9|9|3|3,In this exam,of the students got,of the questions,.,14,"%{""instances"" => [%{""n_col"" => 12, ""rows"" => [9, 9, 9, 3, 3]}], ""number"" => 14, ""sequence"" => [""BBBCC"", ""BBBBC""], ""truth_table"" => []}",Sun Dec 01 2019 15:37:48 GMT+0000 (Greenwich Mean Time),1575214668463,1|1|1|1|1|1|1|1|1|0|0|0|1|1|1|1|1|1|1|1|1|0|0|0|1|1|1|1|1|1|1|1|1|0|0|0|1|1|1|0|0|0|0|0|0|0|0|0|1|1|1|0|0|0|0|0|0|0|0|0,23.30015,main_trials,2
459,,7847,22,all|most|some|none,all|most|some|none,right|wrong,5,,high,placeholder,Graduated High School,1575216066472,placeholder,10,male,English,5bc9e924e642db0001d3a1c5,Describe these results of <strong>Green Valley</strong> so as to make it appear as if there is a <strong>high</strong> success rate without lying.,most|all|right,12|12|12|9|9,In this exam,of the students got,of the questions,.,19,"%{""instances"" => [%{""n_col"" => 12, ""rows"" => '\f\f\f\t\t'}], ""number"" => 19, ""sequence"" => [""AAABB"", ""AAAAB""], ""truth_table"" => []}",Sun Dec 01 2019 15:37:48 GMT+0000 (Greenwich Mean Time),1575214668463,1|1|1|1|1|1|1|1|1|1|1|1|1|1|1|1|1|1|1|1|1|1|1|1|1|1|1|1|1|1|1|1|1|1|1|1|1|1|1|1|1|1|1|1|1|0|0|0|1|1|1|1|1|1|1|1|1|0|0|0,23.30015,main_trials,3
459,,13516,22,all|most|some|none,all|most|some|none,right|wrong,5,,low,placeholder,Graduated High School,1575216066472,placeholder,10,male,English,5bc9e924e642db0001d3a1c5,Describe these results of <strong>Riverside</strong> so as to make it appear as if there is a <strong>low</strong> success rate without lying.,all|some|right,9|9|9|9|9,In this exam,of the students got,of the questions,.,17,"%{""instances"" => [%{""n_col"" => 12, ""rows"" => '\t\t\t\t\t'}], ""number"" => 17, ""sequence"" => [""BBBBB""], ""truth_table"" => []}",Sun Dec 01 2019 15:37:48 GMT+0000 (Greenwich Mean Time),1575214668463,1|1|1|1|1|1|1|1|1|0|0|0|1|1|1|1|1|1|1|1|1|0|0|0|1|1|1|1|1|1|1|1|1|0|0|0|1|1|1|1|1|1|1|1|1|0|0|0|1|1|1|1|1|1|1|1|1|0|0|0,23.30015,main_trials,4
459,,8815,22,all|most|some|none,all|most|some|none,right|wrong,5,,high,placeholder,Graduated High School,1575216066472,placeholder,10,male,English,5bc9e924e642db0001d3a1c5,Describe these results of <strong>Green Valley</strong> so as to make it appear as if there is a <strong>high</strong> success rate without lying.,some|some|right,3|3|0|0|0,In this exam,of the students got,of the questions,.,2,"%{""instances"" => [%{""n_col"" => 12, ""rows"" => [3, 3, 0, 0, 0]}], ""number"" => 2, ""sequence"" => [""CDDDD"", ""CCDDD""], ""truth_table"" => []}",Sun Dec 01 2019 15:37:48 GMT+0000 (Greenwich Mean Time),1575214668463,1|1|1|0|0|0|0|0|0|0|0|0|1|1|1|0|0|0|0|0|0|0|0|0|0|0|0|0|0|0|0|0|0|0|0|0|0|0|0|0|0|0|0|0|0|0|0|0|0|0|0|0|0|0|0|0|0|0|0|0,23.30015,main_trials,5
459,,8226,22,all|most|some|none,all|most|some|none,right|wrong,5,,low,placeholder,Graduated High School,1575216066472,placeholder,10,male,English,5bc9e924e642db0001d3a1c5,Describe these results of <strong>Riverside</strong> so as to make it appear as if there is a <strong>low</strong> success rate without lying.,most|most|wrong,12|12|3|3|3,In this exam,of the students got,of the questions,.,13,"%{""instances"" => [%{""n_col"" => 12, ""rows"" => [12, 12, 3, 3, 3]}], ""number"" => 13, ""sequence"" => [""ACCCC"", ""AACCC"", ""ABCCC""], ""truth_table"" => []}",Sun Dec 01 2019 15:37:48 GMT+0000 (Greenwich Mean Time),1575214668463,1|1|1|1|1|1|1|1|1|1|1|1|1|1|1|1|1|1|1|1|1|1|1|1|1|1|1|0|0|0|0|0|0|0|0|0|1|1|1|0|0|0|0|0|0|0|0|0|1|1|1|0|0|0|0|0|0|0|0|0,23.30015,main_trials,6
459,,5750,22,all|most|some|none,all|most|some|none,right|wrong,5,,high,placeholder,Graduated High School,1575216066472,placeholder,10,male,English,5bc9e924e642db0001d3a1c5,Describe these results of <strong>Green Valley</strong> so as to make it appear as if there is a <strong>high</strong> success rate without lying.,some|most|right,9|9|0|0|0,In this exam,of the students got,of the questions,.,3,"%{""instances"" => [%{""n_col"" => 12, ""rows"" => [9, 9, 0, 0, 0]}], ""number"" => 3, ""sequence"" => [""BDDDD"", ""BBDDD"", ""BCDDD""], ""truth_table"" => []}",Sun Dec 01 2019 15:37:48 GMT+0000 (Greenwich Mean Time),1575214668463,1|1|1|1|1|1|1|1|1|0|0|0|1|1|1|1|1|1|1|1|1|0|0|0|0|0|0|0|0|0|0|0|0|0|0|0|0|0|0|0|0|0|0|0|0|0|0|0|0|0|0|0|0|0|0|0|0|0|0|0,23.30015,main_trials,7
459,,10506,22,all|most|some|none,all|most|some|none,right|wrong,5,,high,placeholder,Graduated High School,1575216066472,placeholder,10,male,English,5bc9e924e642db0001d3a1c5,Describe these results of <strong>Green Valley</strong> so as to make it appear as if there is a <strong>high</strong> success rate without lying.,some|none|right,0|0|0|0|0,In this exam,of the students got,of the questions,.,10,"%{""instances"" => [%{""n_col"" => 12, ""rows"" => [0, 0, 0, 0, 0]}], ""number"" => 10, ""sequence"" => [""DDDDD""], ""truth_table"" => []}",Sun Dec 01 2019 15:37:48 GMT+0000 (Greenwich Mean Time),1575214668463,0|0|0|0|0|0|0|0|0|0|0|0|0|0|0|0|0|0|0|0|0|0|0|0|0|0|0|0|0|0|0|0|0|0|0|0|0|0|0|0|0|0|0|0|0|0|0|0|0|0|0|0|0|0|0|0|0|0|0|0,23.30015,main_trials,8
459,,10387,22,all|most|some|none,all|most|some|none,right|wrong,5,,high,placeholder,Graduated High School,1575216066472,placeholder,10,male,English,5bc9e924e642db0001d3a1c5,Describe these results of <strong>Green Valley</strong> so as to make it appear as if there is a <strong>high</strong> success rate without lying.,some|all|right,12|12|9|9|9,In this exam,of the students got,of the questions,.,18,"%{""instances"" => [%{""n_col"" => 12, ""rows"" => '\f\f\t\t\t'}], ""number"" => 18, ""sequence"" => [""ABBBB"", ""AABBB""], ""truth_table"" => []}",Sun Dec 01 2019 15:37:48 GMT+0000 (Greenwich Mean Time),1575214668463,1|1|1|1|1|1|1|1|1|1|1|1|1|1|1|1|1|1|1|1|1|1|1|1|1|1|1|1|1|1|1|1|1|0|0|0|1|1|1|1|1|1|1|1|1|0|0|0|1|1|1|1|1|1|1|1|1|0|0|0,23.30015,main_trials,9
459,,7259,22,all|most|some|none,all|most|some|none,right|wrong,5,,low,placeholder,Graduated High School,1575216066472,placeholder,10,male,English,5bc9e924e642db0001d3a1c5,Describe these results of <strong>Riverside</strong> so as to make it appear as if there is a <strong>low</strong> success rate without lying.,none|most|right,3|3|3|3|3,In this exam,of the students got,of the questions,.,11,"%{""instances"" => [%{""n_col"" => 12, ""rows"" => [3, 3, 3, 3, 3]}], ""number"" => 11, ""sequence"" => [""CCCCC""], ""truth_table"" => []}",Sun Dec 01 2019 15:37:48 GMT+0000 (Greenwich Mean Time),1575214668463,1|1|1|0|0|0|0|0|0|0|0|0|1|1|1|0|0|0|0|0|0|0|0|0|1|1|1|0|0|0|0|0|0|0|0|0|1|1|1|0|0|0|0|0|0|0|0|0|1|1|1|0|0|0|0|0|0|0|0|0,23.30015,main_trials,10
459,,21518,22,all|most|some|none,all|most|some|none,right|wrong,5,,low,placeholder,Graduated High School,1575216066472,placeholder,10,male,English,5bc9e924e642db0001d3a1c5,Describe these results of <strong>Riverside</strong> so as to make it appear as if there is a <strong>low</strong> success rate without lying.,none|most|right,3|3|3|0|0,In this exam,of the students got,of the questions,.,5,"%{""instances"" => [%{""n_col"" => 12, ""rows"" => [3, 3, 3, 0, 0]}], ""number"" => 5, ""sequence"" => [""CCCDD"", ""CCCCD""], ""truth_table"" => []}",Sun Dec 01 2019 15:37:48 GMT+0000 (Greenwich Mean Time),1575214668463,1|1|1|0|0|0|0|0|0|0|0|0|1|1|1|0|0|0|0|0|0|0|0|0|1|1|1|0|0|0|0|0|0|0|0|0|0|0|0|0|0|0|0|0|0|0|0|0|0|0|0|0|0|0|0|0|0|0|0|0,23.30015,main_trials,11
459,,11634,22,all|most|some|none,all|most|some|none,right|wrong,5,,high,placeholder,Graduated High School,1575216066472,placeholder,10,male,English,5bc9e924e642db0001d3a1c5,Describe these results of <strong>Green Valley</strong> so as to make it appear as if there is a <strong>high</strong> success rate without lying.,some|all|right,12|12|9|3|3,In this exam,of the students got,of the questions,.,15,"%{""instances"" => [%{""n_col"" => 12, ""rows"" => [12, 12, 9, 3, 3]}], ""number"" => 15, ""sequence"" => [""ABBBC"", ""ABBCC"", ""AABCC"", ""AABBC""], ""truth_table"" => []}",Sun Dec 01 2019 15:37:48 GMT+0000 (Greenwich Mean Time),1575214668463,1|1|1|1|1|1|1|1|1|1|1|1|1|1|1|1|1|1|1|1|1|1|1|1|1|1|1|1|1|1|1|1|1|0|0|0|1|1|1|0|0|0|0|0|0|0|0|0|1|1|1|0|0|0|0|0|0|0|0|0,23.30015,main_trials,12
459,,8189,22,all|most|some|none,all|most|some|none,right|wrong,5,,high,placeholder,Graduated High School,1575216066472,placeholder,10,male,English,5bc9e924e642db0001d3a1c5,Describe these results of <strong>Green Valley</strong> so as to make it appear as if there is a <strong>high</strong> success rate without lying.,all|all|right,12|12|12|12|12,In this exam,of the students got,of the questions,.,20,"%{""instances"" => [%{""n_col"" => 12, ""rows"" => '\f\f\f\f\f'}], ""number"" => 20, ""sequence"" => [""AAAAA""], ""truth_table"" => []}",Sun Dec 01 2019 15:37:48 GMT+0000 (Greenwich Mean Time),1575214668463,1|1|1|1|1|1|1|1|1|1|1|1|1|1|1|1|1|1|1|1|1|1|1|1|1|1|1|1|1|1|1|1|1|1|1|1|1|1|1|1|1|1|1|1|1|1|1|1|1|1|1|1|1|1|1|1|1|1|1|1,23.30015,main_trials,13
459,,7713,22,all|most|some|none,all|most|some|none,right|wrong,5,,low,placeholder,Graduated High School,1575216066472,placeholder,10,male,English,5bc9e924e642db0001d3a1c5,Describe these results of <strong>Riverside</strong> so as to make it appear as if there is a <strong>low</strong> success rate without lying.,most|all|wrong,12|12|0|0|0,In this exam,of the students got,of the questions,.,4,"%{""instances"" => [%{""n_col"" => 12, ""rows"" => [12, 12, 0, 0, 0]}], ""number"" => 4, ""sequence"" => [""ADDDD"", ""AADDD"", ""ABDDD"", ""ACDDD""], ""truth_table"" => []}",Sun Dec 01 2019 15:37:48 GMT+0000 (Greenwich Mean Time),1575214668463,1|1|1|1|1|1|1|1|1|1|1|1|1|1|1|1|1|1|1|1|1|1|1|1|0|0|0|0|0|0|0|0|0|0|0|0|0|0|0|0|0|0|0|0|0|0|0|0|0|0|0|0|0|0|0|0|0|0|0|0,23.30015,main_trials,14
459,,17595,22,all|most|some|none,all|most|some|none,right|wrong,5,,high,placeholder,Graduated High School,1575216066472,placeholder,10,male,English,5bc9e924e642db0001d3a1c5,Describe these results of <strong>Green Valley</strong> so as to make it appear as if there is a <strong>high</strong> success rate without lying.,some|all|right,12|12|3|0|0,In this exam,of the students got,of the questions,.,1,"%{""instances"" => [%{""n_col"" => 12, ""rows"" => [12, 12, 3, 0, 0]}], ""number"" => 1, ""sequence"" => [""ACCCD"", ""ACCDD"", ""AACDD"", ""AACCD"", ""ABCDD"", ""ABCCD""], ""truth_table"" => []}",Sun Dec 01 2019 15:37:48 GMT+0000 (Greenwich Mean Time),1575214668463,1|1|1|1|1|1|1|1|1|1|1|1|1|1|1|1|1|1|1|1|1|1|1|1|1|1|1|0|0|0|0|0|0|0|0|0|0|0|0|0|0|0|0|0|0|0|0|0|0|0|0|0|0|0|0|0|0|0|0|0,23.30015,main_trials,15
459,,8356,22,all|most|some|none,all|most|some|none,right|wrong,5,,low,placeholder,Graduated High School,1575216066472,placeholder,10,male,English,5bc9e924e642db0001d3a1c5,Describe these results of <strong>Riverside</strong> so as to make it appear as if there is a <strong>low</strong> success rate without lying.,some|all|wrong,12|12|9|0|0,In this exam,of the students got,of the questions,.,8,"%{""instances"" => [%{""n_col"" => 12, ""rows"" => [12, 12, 9, 0, 0]}], ""number"" => 8, ""sequence"" => [""ABBBD"", ""ABBDD"", ""AABDD"", ""ABBBD"", ""ABBCD"", ""AABCD""], ""truth_table"" => []}",Sun Dec 01 2019 15:37:48 GMT+0000 (Greenwich Mean Time),1575214668463,1|1|1|1|1|1|1|1|1|1|1|1|1|1|1|1|1|1|1|1|1|1|1|1|1|1|1|1|1|1|1|1|1|0|0|0|0|0|0|0|0|0|0|0|0|0|0|0|0|0|0|0|0|0|0|0|0|0|0|0,23.30015,main_trials,16
459,,7272,22,all|most|some|none,all|most|some|none,right|wrong,5,,high,placeholder,Graduated High School,1575216066472,placeholder,10,male,English,5bc9e924e642db0001d3a1c5,Describe these results of <strong>Green Valley</strong> so as to make it appear as if there is a <strong>high</strong> success rate without lying.,most|all|right,12|12|12|3|3,In this exam,of the students got,of the questions,.,16,"%{""instances"" => [%{""n_col"" => 12, ""rows"" => [12, 12, 12, 3, 3]}], ""number"" => 16, ""sequence"" => [""AAACC"", ""AAAAC"", ""AAABC""], ""truth_table"" => []}",Sun Dec 01 2019 15:37:48 GMT+0000 (Greenwich Mean Time),1575214668463,1|1|1|1|1|1|1|1|1|1|1|1|1|1|1|1|1|1|1|1|1|1|1|1|1|1|1|1|1|1|1|1|1|1|1|1|1|1|1|0|0|0|0|0|0|0|0|0|1|1|1|0|0|0|0|0|0|0|0|0,23.30015,main_trials,17
459,,29039,22,all|most|some|none,all|most|some|none,right|wrong,5,,high,placeholder,Graduated High School,1575216066472,placeholder,10,male,English,5bc9e924e642db0001d3a1c5,Describe these results of <strong>Green Valley</strong> so as to make it appear as if there is a <strong>high</strong> success rate without lying.,all|some|right,9|9|3|3|3,In this exam,of the students got,of the questions,.,12,"%{""instances"" => [%{""n_col"" => 12, ""rows"" => [9, 9, 3, 3, 3]}], ""number"" => 12, ""sequence"" => [""BCCCC"", ""BBCCC""], ""truth_table"" => []}",Sun Dec 01 2019 15:37:48 GMT+0000 (Greenwich Mean Time),1575214668463,1|1|1|1|1|1|1|1|1|0|0|0|1|1|1|1|1|1|1|1|1|0|0|0|1|1|1|0|0|0|0|0|0|0|0|0|1|1|1|0|0|0|0|0|0|0|0|0|1|1|1|0|0|0|0|0|0|0|0|0,23.30015,main_trials,18
459,,6268,22,all|most|some|none,all|most|some|none,right|wrong,5,,low,placeholder,Graduated High School,1575216066472,placeholder,10,male,English,5bc9e924e642db0001d3a1c5,Describe these results of <strong>Riverside</strong> so as to make it appear as if there is a <strong>low</strong> success rate without lying.,some|all|wrong,9|9|9|0|0,In this exam,of the students got,of the questions,.,7,"%{""instances"" => [%{""n_col"" => 12, ""rows"" => [9, 9, 9, 0, 0]}], ""number"" => 7, ""sequence"" => [""BBBDD"", ""BBBBD"", ""BBBCD""], ""truth_table"" => []}",Sun Dec 01 2019 15:37:48 GMT+0000 (Greenwich Mean Time),1575214668463,1|1|1|1|1|1|1|1|1|0|0|0|1|1|1|1|1|1|1|1|1|0|0|0|1|1|1|1|1|1|1|1|1|0|0|0|0|0|0|0|0|0|0|0|0|0|0|0|0|0|0|0|0|0|0|0|0|0|0|0,23.30015,main_trials,19
459,,8458,22,all|most|some|none,all|most|some|none,right|wrong,5,,low,placeholder,Graduated High School,1575216066472,placeholder,10,male,English,5bc9e924e642db0001d3a1c5,Describe these results of <strong>Riverside</strong> so as to make it appear as if there is a <strong>low</strong> success rate without lying.,some|all|wrong,9|9|3|0|0,In this exam,of the students got,of the questions,.,6,"%{""instances"" => [%{""n_col"" => 12, ""rows"" => [9, 9, 3, 0, 0]}], ""number"" => 6, ""sequence"" => [""BCCCD"", ""BCCDD"", ""BBCDD"", ""BBCCD""], ""truth_table"" => []}",Sun Dec 01 2019 15:37:48 GMT+0000 (Greenwich Mean Time),1575214668463,1|1|1|1|1|1|1|1|1|0|0|0|1|1|1|1|1|1|1|1|1|0|0|0|1|1|1|0|0|0|0|0|0|0|0|0|0|0|0|0|0|0|0|0|0|0|0|0|0|0|0|0|0|0|0|0|0|0|0|0,23.30015,main_trials,20
458,,151299,32,all|most|some|none,all|most|some|none,right|wrong,5,,high,placeholder,Graduated College,1575215691118,placeholder,10,male,English,5c35655f87b777000170d85a,Describe these results of <strong>Green Valley</strong> so as to make it appear as if there is a <strong>high</strong> success rate without lying.,some|all|right,12|12|0|0|0,In this exam,of the students got,of the questions,.,4,"%{""instances"" => [%{""n_col"" => 12, ""rows"" => [12, 12, 0, 0, 0]}], ""number"" => 4, ""sequence"" => [""ADDDD"", ""AADDD"", ""ABDDD"", ""ACDDD""], ""truth_table"" => []}",Sun Dec 01 2019 15:38:09 GMT+0000 (Greenwich Mean Time),1575214689551,1|1|1|1|1|1|1|1|1|1|1|1|1|1|1|1|1|1|1|1|1|1|1|1|0|0|0|0|0|0|0|0|0|0|0|0|0|0|0|0|0|0|0|0|0|0|0|0|0|0|0|0|0|0|0|0|0|0|0|0,16.692783333333335,training_trials,1
458,,21940,32,all|most|some|none,all|most|some|none,right|wrong,5,,low,placeholder,Graduated College,1575215691118,placeholder,10,male,English,5c35655f87b777000170d85a,Describe these results of <strong>Riverside</strong> so as to make it appear as if there is a <strong>low</strong> success rate without lying.,most|all|wrong,12|12|0|0|0,In this exam,of the students got,of the questions,.,4,"%{""instances"" => [%{""n_col"" => 12, ""rows"" => [12, 12, 0, 0, 0]}], ""number"" => 4, ""sequence"" => [""ADDDD"", ""AADDD"", ""ABDDD"", ""ACDDD""], ""truth_table"" => []}",Sun Dec 01 2019 15:38:09 GMT+0000 (Greenwich Mean Time),1575214689551,1|1|1|1|1|1|1|1|1|1|1|1|1|1|1|1|1|1|1|1|1|1|1|1|0|0|0|0|0|0|0|0|0|0|0|0|0|0|0|0|0|0|0|0|0|0|0|0|0|0|0|0|0|0|0|0|0|0|0|0,16.692783333333335,training_trials,2
458,,48967,32,all|most|some|none,all|most|some|none,right|wrong,5,,high,placeholder,Graduated College,1575215691118,placeholder,10,male,English,5c35655f87b777000170d85a,Describe these results of <strong>Green Valley</strong> so as to make it appear as if there is a <strong>high</strong> success rate without lying.,some|most|right,9|9|3|3|3,In this exam,of the students got,of the questions,.,12,"%{""instances"" => [%{""n_col"" => 12, ""rows"" => [9, 9, 3, 3, 3]}], ""number"" => 12, ""sequence"" => [""BCCCC"", ""BBCCC""], ""truth_table"" => []}",Sun Dec 01 2019 15:38:09 GMT+0000 (Greenwich Mean Time),1575214689551,1|1|1|1|1|1|1|1|1|0|0|0|1|1|1|1|1|1|1|1|1|0|0|0|1|1|1|0|0|0|0|0|0|0|0|0|1|1|1|0|0|0|0|0|0|0|0|0|1|1|1|0|0|0|0|0|0|0|0|0,16.692783333333335,training_trials,3
458,,24016,32,all|most|some|none,all|most|some|none,right|wrong,5,,low,placeholder,Graduated College,1575215691118,placeholder,10,male,English,5c35655f87b777000170d85a,Describe these results of <strong>Riverside</strong> so as to make it appear as if there is a <strong>low</strong> success rate without lying.,most|most|wrong,9|9|3|3|3,In this exam,of the students got,of the questions,.,12,"%{""instances"" => [%{""n_col"" => 12, ""rows"" => [9, 9, 3, 3, 3]}], ""number"" => 12, ""sequence"" => [""BCCCC"", ""BBCCC""], ""truth_table"" => []}",Sun Dec 01 2019 15:38:09 GMT+0000 (Greenwich Mean Time),1575214689551,1|1|1|1|1|1|1|1|1|0|0|0|1|1|1|1|1|1|1|1|1|0|0|0|1|1|1|0|0|0|0|0|0|0|0|0|1|1|1|0|0|0|0|0|0|0|0|0|1|1|1|0|0|0|0|0|0|0|0|0,16.692783333333335,training_trials,4
458,,26022,32,all|most|some|none,all|most|some|none,right|wrong,5,,high,placeholder,Graduated College,1575215691118,placeholder,10,male,English,5c35655f87b777000170d85a,Describe these results of <strong>Green Valley</strong> so as to make it appear as if there is a <strong>high</strong> success rate without lying.,all|some|right,3|3|3|3|3,In this exam,of the students got,of the questions,.,11,"%{""instances"" => [%{""n_col"" => 12, ""rows"" => [3, 3, 3, 3, 3]}], ""number"" => 11, ""sequence"" => [""CCCCC""], ""truth_table"" => []}",Sun Dec 01 2019 15:38:09 GMT+0000 (Greenwich Mean Time),1575214689551,1|1|1|0|0|0|0|0|0|0|0|0|1|1|1|0|0|0|0|0|0|0|0|0|1|1|1|0|0|0|0|0|0|0|0|0|1|1|1|0|0|0|0|0|0|0|0|0|1|1|1|0|0|0|0|0|0|0|0|0,16.692783333333335,main_trials,1
458,,25745,32,all|most|some|none,all|most|some|none,right|wrong,5,,low,placeholder,Graduated College,1575215691118,placeholder,10,male,English,5c35655f87b777000170d85a,Describe these results of <strong>Riverside</strong> so as to make it appear as if there is a <strong>low</strong> success rate without lying.,some|most|wrong,12|12|12|3|3,In this exam,of the students got,of the questions,.,16,"%{""instances"" => [%{""n_col"" => 12, ""rows"" => [12, 12, 12, 3, 3]}], ""number"" => 16, ""sequence"" => [""AAACC"", ""AAAAC"", ""AAABC""], ""truth_table"" => []}",Sun Dec 01 2019 15:38:09 GMT+0000 (Greenwich Mean Time),1575214689551,1|1|1|1|1|1|1|1|1|1|1|1|1|1|1|1|1|1|1|1|1|1|1|1|1|1|1|1|1|1|1|1|1|1|1|1|1|1|1|0|0|0|0|0|0|0|0|0|1|1|1|0|0|0|0|0|0|0|0|0,16.692783333333335,main_trials,2
458,,25189,32,all|most|some|none,all|most|some|none,right|wrong,5,,low,placeholder,Graduated College,1575215691118,placeholder,10,male,English,5c35655f87b777000170d85a,Describe these results of <strong>Riverside</strong> so as to make it appear as if there is a <strong>low</strong> success rate without lying.,some|most|wrong,9|9|9|3|3,In this exam,of the students got,of the questions,.,14,"%{""instances"" => [%{""n_col"" => 12, ""rows"" => [9, 9, 9, 3, 3]}], ""number"" => 14, ""sequence"" => [""BBBCC"", ""BBBBC""], ""truth_table"" => []}",Sun Dec 01 2019 15:38:09 GMT+0000 (Greenwich Mean Time),1575214689551,1|1|1|1|1|1|1|1|1|0|0|0|1|1|1|1|1|1|1|1|1|0|0|0|1|1|1|1|1|1|1|1|1|0|0|0|1|1|1|0|0|0|0|0|0|0|0|0|1|1|1|0|0|0|0|0|0|0|0|0,16.692783333333335,main_trials,3
458,,23660,32,all|most|some|none,all|most|some|none,right|wrong,5,,low,placeholder,Graduated College,1575215691118,placeholder,10,male,English,5c35655f87b777000170d85a,Describe these results of <strong>Riverside</strong> so as to make it appear as if there is a <strong>low</strong> success rate without lying.,some|most|wrong,12|12|9|3|3,In this exam,of the students got,of the questions,.,15,"%{""instances"" => [%{""n_col"" => 12, ""rows"" => [12, 12, 9, 3, 3]}], ""number"" => 15, ""sequence"" => [""ABBBC"", ""ABBCC"", ""AABCC"", ""AABBC""], ""truth_table"" => []}",Sun Dec 01 2019 15:38:09 GMT+0000 (Greenwich Mean Time),1575214689551,1|1|1|1|1|1|1|1|1|1|1|1|1|1|1|1|1|1|1|1|1|1|1|1|1|1|1|1|1|1|1|1|1|0|0|0|1|1|1|0|0|0|0|0|0|0|0|0|1|1|1|0|0|0|0|0|0|0|0|0,16.692783333333335,main_trials,4
458,,14443,32,all|most|some|none,all|most|some|none,right|wrong,5,,high,placeholder,Graduated College,1575215691118,placeholder,10,male,English,5c35655f87b777000170d85a,Describe these results of <strong>Green Valley</strong> so as to make it appear as if there is a <strong>high</strong> success rate without lying.,some|all|right,12|12|0|0|0,In this exam,of the students got,of the questions,.,4,"%{""instances"" => [%{""n_col"" => 12, ""rows"" => [12, 12, 0, 0, 0]}], ""number"" => 4, ""sequence"" => [""ADDDD"", ""AADDD"", ""ABDDD"", ""ACDDD""], ""truth_table"" => []}",Sun Dec 01 2019 15:38:09 GMT+0000 (Greenwich Mean Time),1575214689551,1|1|1|1|1|1|1|1|1|1|1|1|1|1|1|1|1|1|1|1|1|1|1|1|0|0|0|0|0|0|0|0|0|0|0|0|0|0|0|0|0|0|0|0|0|0|0|0|0|0|0|0|0|0|0|0|0|0|0|0,16.692783333333335,main_trials,5
458,,26806,32,all|most|some|none,all|most|some|none,right|wrong,5,,high,placeholder,Graduated College,1575215691118,placeholder,10,male,English,5c35655f87b777000170d85a,Describe these results of <strong>Green Valley</strong> so as to make it appear as if there is a <strong>high</strong> success rate without lying.,most|most|right,12|12|9|0|0,In this exam,of the students got,of the questions,.,8,"%{""instances"" => [%{""n_col"" => 12, ""rows"" => [12, 12, 9, 0, 0]}], ""number"" => 8, ""sequence"" => [""ABBBD"", ""ABBDD"", ""AABDD"", ""ABBBD"", ""ABBCD"", ""AABCD""], ""truth_table"" => []}",Sun Dec 01 2019 15:38:09 GMT+0000 (Greenwich Mean Time),1575214689551,1|1|1|1|1|1|1|1|1|1|1|1|1|1|1|1|1|1|1|1|1|1|1|1|1|1|1|1|1|1|1|1|1|0|0|0|0|0|0|0|0|0|0|0|0|0|0|0|0|0|0|0|0|0|0|0|0|0|0|0,16.692783333333335,main_trials,6
458,,14139,32,all|most|some|none,all|most|some|none,right|wrong,5,,high,placeholder,Graduated College,1575215691118,placeholder,10,male,English,5c35655f87b777000170d85a,Describe these results of <strong>Green Valley</strong> so as to make it appear as if there is a <strong>high</strong> success rate without lying.,some|all|right,12|12|3|0|0,In this exam,of the students got,of the questions,.,1,"%{""instances"" => [%{""n_col"" => 12, ""rows"" => [12, 12, 3, 0, 0]}], ""number"" => 1, ""sequence"" => [""ACCCD"", ""ACCDD"", ""AACDD"", ""AACCD"", ""ABCDD"", ""ABCCD""], ""truth_table"" => []}",Sun Dec 01 2019 15:38:09 GMT+0000 (Greenwich Mean Time),1575214689551,1|1|1|1|1|1|1|1|1|1|1|1|1|1|1|1|1|1|1|1|1|1|1|1|1|1|1|0|0|0|0|0|0|0|0|0|0|0|0|0|0|0|0|0|0|0|0|0|0|0|0|0|0|0|0|0|0|0|0|0,16.692783333333335,main_trials,7
458,,22627,32,all|most|some|none,all|most|some|none,right|wrong,5,,high,placeholder,Graduated College,1575215691118,placeholder,10,male,English,5c35655f87b777000170d85a,Describe these results of <strong>Green Valley</strong> so as to make it appear as if there is a <strong>high</strong> success rate without lying.,some|some|right,3|3|0|0|0,In this exam,of the students got,of the questions,.,2,"%{""instances"" => [%{""n_col"" => 12, ""rows"" => [3, 3, 0, 0, 0]}], ""number"" => 2, ""sequence"" => [""CDDDD"", ""CCDDD""], ""truth_table"" => []}",Sun Dec 01 2019 15:38:09 GMT+0000 (Greenwich Mean Time),1575214689551,1|1|1|0|0|0|0|0|0|0|0|0|1|1|1|0|0|0|0|0|0|0|0|0|0|0|0|0|0|0|0|0|0|0|0|0|0|0|0|0|0|0|0|0|0|0|0|0|0|0|0|0|0|0|0|0|0|0|0|0,16.692783333333335,main_trials,8
458,,13675,32,all|most|some|none,all|most|some|none,right|wrong,5,,high,placeholder,Graduated College,1575215691118,placeholder,10,male,English,5c35655f87b777000170d85a,Describe these results of <strong>Green Valley</strong> so as to make it appear as if there is a <strong>high</strong> success rate without lying.,some|most|right,9|9|3|0|0,In this exam,of the students got,of the questions,.,6,"%{""instances"" => [%{""n_col"" => 12, ""rows"" => [9, 9, 3, 0, 0]}], ""number"" => 6, ""sequence"" => [""BCCCD"", ""BCCDD"", ""BBCDD"", ""BBCCD""], ""truth_table"" => []}",Sun Dec 01 2019 15:38:09 GMT+0000 (Greenwich Mean Time),1575214689551,1|1|1|1|1|1|1|1|1|0|0|0|1|1|1|1|1|1|1|1|1|0|0|0|1|1|1|0|0|0|0|0|0|0|0|0|0|0|0|0|0|0|0|0|0|0|0|0|0|0|0|0|0|0|0|0|0|0|0|0,16.692783333333335,main_trials,9
458,,24453,32,all|most|some|none,all|most|some|none,right|wrong,5,,low,placeholder,Graduated College,1575215691118,placeholder,10,male,English,5c35655f87b777000170d85a,Describe these results of <strong>Riverside</strong> so as to make it appear as if there is a <strong>low</strong> success rate without lying.,some|some|wrong,12|12|9|9|9,In this exam,of the students got,of the questions,.,18,"%{""instances"" => [%{""n_col"" => 12, ""rows"" => '\f\f\t\t\t'}], ""number"" => 18, ""sequence"" => [""ABBBB"", ""AABBB""], ""truth_table"" => []}",Sun Dec 01 2019 15:38:09 GMT+0000 (Greenwich Mean Time),1575214689551,1|1|1|1|1|1|1|1|1|1|1|1|1|1|1|1|1|1|1|1|1|1|1|1|1|1|1|1|1|1|1|1|1|0|0|0|1|1|1|1|1|1|1|1|1|0|0|0|1|1|1|1|1|1|1|1|1|0|0|0,16.692783333333335,main_trials,10
458,,18217,32,all|most|some|none,all|most|some|none,right|wrong,5,,low,placeholder,Graduated College,1575215691118,placeholder,10,male,English,5c35655f87b777000170d85a,Describe these results of <strong>Riverside</strong> so as to make it appear as if there is a <strong>low</strong> success rate without lying.,none|none|wrong,12|12|12|12|12,In this exam,of the students got,of the questions,.,20,"%{""instances"" => [%{""n_col"" => 12, ""rows"" => '\f\f\f\f\f'}], ""number"" => 20, ""sequence"" => [""AAAAA""], ""truth_table"" => []}",Sun Dec 01 2019 15:38:09 GMT+0000 (Greenwich Mean Time),1575214689551,1|1|1|1|1|1|1|1|1|1|1|1|1|1|1|1|1|1|1|1|1|1|1|1|1|1|1|1|1|1|1|1|1|1|1|1|1|1|1|1|1|1|1|1|1|1|1|1|1|1|1|1|1|1|1|1|1|1|1|1,16.692783333333335,main_trials,11
458,,12863,32,all|most|some|none,all|most|some|none,right|wrong,5,,low,placeholder,Graduated College,1575215691118,placeholder,10,male,English,5c35655f87b777000170d85a,Describe these results of <strong>Riverside</strong> so as to make it appear as if there is a <strong>low</strong> success rate without lying.,some|all|wrong,9|9|9|0|0,In this exam,of the students got,of the questions,.,7,"%{""instances"" => [%{""n_col"" => 12, ""rows"" => [9, 9, 9, 0, 0]}], ""number"" => 7, ""sequence"" => [""BBBDD"", ""BBBBD"", ""BBBCD""], ""truth_table"" => []}",Sun Dec 01 2019 15:38:09 GMT+0000 (Greenwich Mean Time),1575214689551,1|1|1|1|1|1|1|1|1|0|0|0|1|1|1|1|1|1|1|1|1|0|0|0|1|1|1|1|1|1|1|1|1|0|0|0|0|0|0|0|0|0|0|0|0|0|0|0|0|0|0|0|0|0|0|0|0|0|0|0,16.692783333333335,main_trials,12
458,,11251,32,all|most|some|none,all|most|some|none,right|wrong,5,,low,placeholder,Graduated College,1575215691118,placeholder,10,male,English,5c35655f87b777000170d85a,Describe these results of <strong>Riverside</strong> so as to make it appear as if there is a <strong>low</strong> success rate without lying.,most|all|wrong,9|9|0|0|0,In this exam,of the students got,of the questions,.,3,"%{""instances"" => [%{""n_col"" => 12, ""rows"" => [9, 9, 0, 0, 0]}], ""number"" => 3, ""sequence"" => [""BDDDD"", ""BBDDD"", ""BCDDD""], ""truth_table"" => []}",Sun Dec 01 2019 15:38:09 GMT+0000 (Greenwich Mean Time),1575214689551,1|1|1|1|1|1|1|1|1|0|0|0|1|1|1|1|1|1|1|1|1|0|0|0|0|0|0|0|0|0|0|0|0|0|0|0|0|0|0|0|0|0|0|0|0|0|0|0|0|0|0|0|0|0|0|0|0|0|0|0,16.692783333333335,main_trials,13
458,,12208,32,all|most|some|none,all|most|some|none,right|wrong,5,,high,placeholder,Graduated College,1575215691118,placeholder,10,male,English,5c35655f87b777000170d85a,Describe these results of <strong>Green Valley</strong> so as to make it appear as if there is a <strong>high</strong> success rate without lying.,all|most|right,9|9|9|9|9,In this exam,of the students got,of the questions,.,17,"%{""instances"" => [%{""n_col"" => 12, ""rows"" => '\t\t\t\t\t'}], ""number"" => 17, ""sequence"" => [""BBBBB""], ""truth_table"" => []}",Sun Dec 01 2019 15:38:09 GMT+0000 (Greenwich Mean Time),1575214689551,1|1|1|1|1|1|1|1|1|0|0|0|1|1|1|1|1|1|1|1|1|0|0|0|1|1|1|1|1|1|1|1|1|0|0|0|1|1|1|1|1|1|1|1|1|0|0|0|1|1|1|1|1|1|1|1|1|0|0|0,16.692783333333335,main_trials,14
458,,24611,32,all|most|some|none,all|most|some|none,right|wrong,5,,low,placeholder,Graduated College,1575215691118,placeholder,10,male,English,5c35655f87b777000170d85a,Describe these results of <strong>Riverside</strong> so as to make it appear as if there is a <strong>low</strong> success rate without lying.,most|most|wrong,12|12|3|3|3,In this exam,of the students got,of the questions,.,13,"%{""instances"" => [%{""n_col"" => 12, ""rows"" => [12, 12, 3, 3, 3]}], ""number"" => 13, ""sequence"" => [""ACCCC"", ""AACCC"", ""ABCCC""], ""truth_table"" => []}",Sun Dec 01 2019 15:38:09 GMT+0000 (Greenwich Mean Time),1575214689551,1|1|1|1|1|1|1|1|1|1|1|1|1|1|1|1|1|1|1|1|1|1|1|1|1|1|1|0|0|0|0|0|0|0|0|0|1|1|1|0|0|0|0|0|0|0|0|0|1|1|1|0|0|0|0|0|0|0|0|0,16.692783333333335,main_trials,15
458,,23501,32,all|most|some|none,all|most|some|none,right|wrong,5,,high,placeholder,Graduated College,1575215691118,placeholder,10,male,English,5c35655f87b777000170d85a,Describe these results of <strong>Green Valley</strong> so as to make it appear as if there is a <strong>high</strong> success rate without lying.,some|most|right,9|9|3|3|3,In this exam,of the students got,of the questions,.,12,"%{""instances"" => [%{""n_col"" => 12, ""rows"" => [9, 9, 3, 3, 3]}], ""number"" => 12, ""sequence"" => [""BCCCC"", ""BBCCC""], ""truth_table"" => []}",Sun Dec 01 2019 15:38:09 GMT+0000 (Greenwich Mean Time),1575214689551,1|1|1|1|1|1|1|1|1|0|0|0|1|1|1|1|1|1|1|1|1|0|0|0|1|1|1|0|0|0|0|0|0|0|0|0|1|1|1|0|0|0|0|0|0|0|0|0|1|1|1|0|0|0|0|0|0|0|0|0,16.692783333333335,main_trials,16
458,,12395,32,all|most|some|none,all|most|some|none,right|wrong,5,,low,placeholder,Graduated College,1575215691118,placeholder,10,male,English,5c35655f87b777000170d85a,Describe these results of <strong>Riverside</strong> so as to make it appear as if there is a <strong>low</strong> success rate without lying.,some|all|wrong,12|12|12|0|0,In this exam,of the students got,of the questions,.,9,"%{""instances"" => [%{""n_col"" => 12, ""rows"" => [12, 12, 12, 0, 0]}], ""number"" => 9, ""sequence"" => [""AAADD"", ""AAAAD"", ""AAABD"", ""AAACD""], ""truth_table"" => []}",Sun Dec 01 2019 15:38:09 GMT+0000 (Greenwich Mean Time),1575214689551,1|1|1|1|1|1|1|1|1|1|1|1|1|1|1|1|1|1|1|1|1|1|1|1|1|1|1|1|1|1|1|1|1|1|1|1|0|0|0|0|0|0|0|0|0|0|0|0|0|0|0|0|0|0|0|0|0|0|0|0,16.692783333333335,main_trials,17
458,,21850,32,all|most|some|none,all|most|some|none,right|wrong,5,,low,placeholder,Graduated College,1575215691118,placeholder,10,male,English,5c35655f87b777000170d85a,Describe these results of <strong>Riverside</strong> so as to make it appear as if there is a <strong>low</strong> success rate without lying.,all|all|wrong,0|0|0|0|0,In this exam,of the students got,of the questions,.,10,"%{""instances"" => [%{""n_col"" => 12, ""rows"" => [0, 0, 0, 0, 0]}], ""number"" => 10, ""sequence"" => [""DDDDD""], ""truth_table"" => []}",Sun Dec 01 2019 15:38:09 GMT+0000 (Greenwich Mean Time),1575214689551,0|0|0|0|0|0|0|0|0|0|0|0|0|0|0|0|0|0|0|0|0|0|0|0|0|0|0|0|0|0|0|0|0|0|0|0|0|0|0|0|0|0|0|0|0|0|0|0|0|0|0|0|0|0|0|0|0|0|0|0,16.692783333333335,main_trials,18
458,,22660,32,all|most|some|none,all|most|some|none,right|wrong,5,,high,placeholder,Graduated College,1575215691118,placeholder,10,male,English,5c35655f87b777000170d85a,Describe these results of <strong>Green Valley</strong> so as to make it appear as if there is a <strong>high</strong> success rate without lying.,most|some|right,3|3|3|0|0,In this exam,of the students got,of the questions,.,5,"%{""instances"" => [%{""n_col"" => 12, ""rows"" => [3, 3, 3, 0, 0]}], ""number"" => 5, ""sequence"" => [""CCCDD"", ""CCCCD""], ""truth_table"" => []}",Sun Dec 01 2019 15:38:09 GMT+0000 (Greenwich Mean Time),1575214689551,1|1|1|0|0|0|0|0|0|0|0|0|1|1|1|0|0|0|0|0|0|0|0|0|1|1|1|0|0|0|0|0|0|0|0|0|0|0|0|0|0|0|0|0|0|0|0|0|0|0|0|0|0|0|0|0|0|0|0|0,16.692783333333335,main_trials,19
458,,35490,32,all|most|some|none,all|most|some|none,right|wrong,5,,high,placeholder,Graduated College,1575215691118,placeholder,10,male,English,5c35655f87b777000170d85a,Describe these results of <strong>Green Valley</strong> so as to make it appear as if there is a <strong>high</strong> success rate without lying.,most|all|right,12|12|12|9|9,In this exam,of the students got,of the questions,.,19,"%{""instances"" => [%{""n_col"" => 12, ""rows"" => '\f\f\f\t\t'}], ""number"" => 19, ""sequence"" => [""AAABB"", ""AAAAB""], ""truth_table"" => []}",Sun Dec 01 2019 15:38:09 GMT+0000 (Greenwich Mean Time),1575214689551,1|1|1|1|1|1|1|1|1|1|1|1|1|1|1|1|1|1|1|1|1|1|1|1|1|1|1|1|1|1|1|1|1|1|1|1|1|1|1|1|1|1|1|1|1|0|0|0|1|1|1|1|1|1|1|1|1|0|0|0,16.692783333333335,main_trials,20
457,,24096,68,all|most|some|none,all|most|some|none,right|wrong,5,THIS WAS ENJOYABLE BUT A BIT TRICKY SOMETIMES,high,placeholder,Graduated College,1575215643293,placeholder,10,female,ENGLISH,5a9bff3b6475f900019ffc51,Describe these results of <strong>Green Valley</strong> so as to make it appear as if there is a <strong>high</strong> success rate without lying.,some|some|right,12|12|0|0|0,In this exam,of the students got,of the questions,.,4,"%{""instances"" => [%{""n_col"" => 12, ""rows"" => [12, 12, 0, 0, 0]}], ""number"" => 4, ""sequence"" => [""ADDDD"", ""AADDD"", ""ABDDD"", ""ACDDD""], ""truth_table"" => []}",Sun Dec 01 2019 15:37:54 GMT+0000 (Greenwich Mean Time),1575214674933,1|1|1|1|1|1|1|1|1|1|1|1|1|1|1|1|1|1|1|1|1|1|1|1|0|0|0|0|0|0|0|0|0|0|0|0|0|0|0|0|0|0|0|0|0|0|0|0|0|0|0|0|0|0|0|0|0|0|0|0,16.139333333333333,training_trials,1
457,,18049,68,all|most|some|none,all|most|some|none,right|wrong,5,THIS WAS ENJOYABLE BUT A BIT TRICKY SOMETIMES,low,placeholder,Graduated College,1575215643293,placeholder,10,female,ENGLISH,5a9bff3b6475f900019ffc51,Describe these results of <strong>Riverside</strong> so as to make it appear as if there is a <strong>low</strong> success rate without lying.,some|some|wrong,12|12|0|0|0,In this exam,of the students got,of the questions,.,4,"%{""instances"" => [%{""n_col"" => 12, ""rows"" => [12, 12, 0, 0, 0]}], ""number"" => 4, ""sequence"" => [""ADDDD"", ""AADDD"", ""ABDDD"", ""ACDDD""], ""truth_table"" => []}",Sun Dec 01 2019 15:37:54 GMT+0000 (Greenwich Mean Time),1575214674933,1|1|1|1|1|1|1|1|1|1|1|1|1|1|1|1|1|1|1|1|1|1|1|1|0|0|0|0|0|0|0|0|0|0|0|0|0|0|0|0|0|0|0|0|0|0|0|0|0|0|0|0|0|0|0|0|0|0|0|0,16.139333333333333,training_trials,2
457,,56101,68,all|most|some|none,all|most|some|none,right|wrong,5,THIS WAS ENJOYABLE BUT A BIT TRICKY SOMETIMES,high,placeholder,Graduated College,1575215643293,placeholder,10,female,ENGLISH,5a9bff3b6475f900019ffc51,Describe these results of <strong>Green Valley</strong> so as to make it appear as if there is a <strong>high</strong> success rate without lying.,all|some|right,9|9|3|3|3,In this exam,of the students got,of the questions,.,12,"%{""instances"" => [%{""n_col"" => 12, ""rows"" => [9, 9, 3, 3, 3]}], ""number"" => 12, ""sequence"" => [""BCCCC"", ""BBCCC""], ""truth_table"" => []}",Sun Dec 01 2019 15:37:54 GMT+0000 (Greenwich Mean Time),1575214674933,1|1|1|1|1|1|1|1|1|0|0|0|1|1|1|1|1|1|1|1|1|0|0|0|1|1|1|0|0|0|0|0|0|0|0|0|1|1|1|0|0|0|0|0|0|0|0|0|1|1|1|0|0|0|0|0|0|0|0|0,16.139333333333333,training_trials,3
457,,28587,68,all|most|some|none,all|most|some|none,right|wrong,5,THIS WAS ENJOYABLE BUT A BIT TRICKY SOMETIMES,low,placeholder,Graduated College,1575215643293,placeholder,10,female,ENGLISH,5a9bff3b6475f900019ffc51,Describe these results of <strong>Riverside</strong> so as to make it appear as if there is a <strong>low</strong> success rate without lying.,some|most|wrong,9|9|3|3|3,In this exam,of the students got,of the questions,.,12,"%{""instances"" => [%{""n_col"" => 12, ""rows"" => [9, 9, 3, 3, 3]}], ""number"" => 12, ""sequence"" => [""BCCCC"", ""BBCCC""], ""truth_table"" => []}",Sun Dec 01 2019 15:37:54 GMT+0000 (Greenwich Mean Time),1575214674933,1|1|1|1|1|1|1|1|1|0|0|0|1|1|1|1|1|1|1|1|1|0|0|0|1|1|1|0|0|0|0|0|0|0|0|0|1|1|1|0|0|0|0|0|0|0|0|0|1|1|1|0|0|0|0|0|0|0|0|0,16.139333333333333,training_trials,4
457,,42321,68,all|most|some|none,all|most|some|none,right|wrong,5,THIS WAS ENJOYABLE BUT A BIT TRICKY SOMETIMES,low,placeholder,Graduated College,1575215643293,placeholder,10,female,ENGLISH,5a9bff3b6475f900019ffc51,Describe these results of <strong>Riverside</strong> so as to make it appear as if there is a <strong>low</strong> success rate without lying.,all|none|wrong,12|12|12|12|12,In this exam,of the students got,of the questions,.,20,"%{""instances"" => [%{""n_col"" => 12, ""rows"" => '\f\f\f\f\f'}], ""number"" => 20, ""sequence"" => [""AAAAA""], ""truth_table"" => []}",Sun Dec 01 2019 15:37:54 GMT+0000 (Greenwich Mean Time),1575214674933,1|1|1|1|1|1|1|1|1|1|1|1|1|1|1|1|1|1|1|1|1|1|1|1|1|1|1|1|1|1|1|1|1|1|1|1|1|1|1|1|1|1|1|1|1|1|1|1|1|1|1|1|1|1|1|1|1|1|1|1,16.139333333333333,main_trials,1
457,,22596,68,all|most|some|none,all|most|some|none,right|wrong,5,THIS WAS ENJOYABLE BUT A BIT TRICKY SOMETIMES,high,placeholder,Graduated College,1575215643293,placeholder,10,female,ENGLISH,5a9bff3b6475f900019ffc51,Describe these results of <strong>Green Valley</strong> so as to make it appear as if there is a <strong>high</strong> success rate without lying.,most|most|right,9|9|9|0|0,In this exam,of the students got,of the questions,.,7,"%{""instances"" => [%{""n_col"" => 12, ""rows"" => [9, 9, 9, 0, 0]}], ""number"" => 7, ""sequence"" => [""BBBDD"", ""BBBBD"", ""BBBCD""], ""truth_table"" => []}",Sun Dec 01 2019 15:37:54 GMT+0000 (Greenwich Mean Time),1575214674933,1|1|1|1|1|1|1|1|1|0|0|0|1|1|1|1|1|1|1|1|1|0|0|0|1|1|1|1|1|1|1|1|1|0|0|0|0|0|0|0|0|0|0|0|0|0|0|0|0|0|0|0|0|0|0|0|0|0|0|0,16.139333333333333,main_trials,2
457,,15111,68,all|most|some|none,all|most|some|none,right|wrong,5,THIS WAS ENJOYABLE BUT A BIT TRICKY SOMETIMES,low,placeholder,Graduated College,1575215643293,placeholder,10,female,ENGLISH,5a9bff3b6475f900019ffc51,Describe these results of <strong>Riverside</strong> so as to make it appear as if there is a <strong>low</strong> success rate without lying.,most|most|wrong,9|9|3|3|3,In this exam,of the students got,of the questions,.,12,"%{""instances"" => [%{""n_col"" => 12, ""rows"" => [9, 9, 3, 3, 3]}], ""number"" => 12, ""sequence"" => [""BCCCC"", ""BBCCC""], ""truth_table"" => []}",Sun Dec 01 2019 15:37:54 GMT+0000 (Greenwich Mean Time),1575214674933,1|1|1|1|1|1|1|1|1|0|0|0|1|1|1|1|1|1|1|1|1|0|0|0|1|1|1|0|0|0|0|0|0|0|0|0|1|1|1|0|0|0|0|0|0|0|0|0|1|1|1|0|0|0|0|0|0|0|0|0,16.139333333333333,main_trials,3
457,,30571,68,all|most|some|none,all|most|some|none,right|wrong,5,THIS WAS ENJOYABLE BUT A BIT TRICKY SOMETIMES,high,placeholder,Graduated College,1575215643293,placeholder,10,female,ENGLISH,5a9bff3b6475f900019ffc51,Describe these results of <strong>Green Valley</strong> so as to make it appear as if there is a <strong>high</strong> success rate without lying.,most|most|right,9|9|9|3|3,In this exam,of the students got,of the questions,.,14,"%{""instances"" => [%{""n_col"" => 12, ""rows"" => [9, 9, 9, 3, 3]}], ""number"" => 14, ""sequence"" => [""BBBCC"", ""BBBBC""], ""truth_table"" => []}",Sun Dec 01 2019 15:37:54 GMT+0000 (Greenwich Mean Time),1575214674933,1|1|1|1|1|1|1|1|1|0|0|0|1|1|1|1|1|1|1|1|1|0|0|0|1|1|1|1|1|1|1|1|1|0|0|0|1|1|1|0|0|0|0|0|0|0|0|0|1|1|1|0|0|0|0|0|0|0|0|0,16.139333333333333,main_trials,4
457,,21448,68,all|most|some|none,all|most|some|none,right|wrong,5,THIS WAS ENJOYABLE BUT A BIT TRICKY SOMETIMES,high,placeholder,Graduated College,1575215643293,placeholder,10,female,ENGLISH,5a9bff3b6475f900019ffc51,Describe these results of <strong>Green Valley</strong> so as to make it appear as if there is a <strong>high</strong> success rate without lying.,most|most|right,12|12|12|0|0,In this exam,of the students got,of the questions,.,9,"%{""instances"" => [%{""n_col"" => 12, ""rows"" => [12, 12, 12, 0, 0]}], ""number"" => 9, ""sequence"" => [""AAADD"", ""AAAAD"", ""AAABD"", ""AAACD""], ""truth_table"" => []}",Sun Dec 01 2019 15:37:54 GMT+0000 (Greenwich Mean Time),1575214674933,1|1|1|1|1|1|1|1|1|1|1|1|1|1|1|1|1|1|1|1|1|1|1|1|1|1|1|1|1|1|1|1|1|1|1|1|0|0|0|0|0|0|0|0|0|0|0|0|0|0|0|0|0|0|0|0|0|0|0|0,16.139333333333333,main_trials,5
457,,14977,68,all|most|some|none,all|most|some|none,right|wrong,5,THIS WAS ENJOYABLE BUT A BIT TRICKY SOMETIMES,low,placeholder,Graduated College,1575215643293,placeholder,10,female,ENGLISH,5a9bff3b6475f900019ffc51,Describe these results of <strong>Riverside</strong> so as to make it appear as if there is a <strong>low</strong> success rate without lying.,some|most|wrong,12|12|12|3|3,In this exam,of the students got,of the questions,.,16,"%{""instances"" => [%{""n_col"" => 12, ""rows"" => [12, 12, 12, 3, 3]}], ""number"" => 16, ""sequence"" => [""AAACC"", ""AAAAC"", ""AAABC""], ""truth_table"" => []}",Sun Dec 01 2019 15:37:54 GMT+0000 (Greenwich Mean Time),1575214674933,1|1|1|1|1|1|1|1|1|1|1|1|1|1|1|1|1|1|1|1|1|1|1|1|1|1|1|1|1|1|1|1|1|1|1|1|1|1|1|0|0|0|0|0|0|0|0|0|1|1|1|0|0|0|0|0|0|0|0|0,16.139333333333333,main_trials,6
457,,13284,68,all|most|some|none,all|most|some|none,right|wrong,5,THIS WAS ENJOYABLE BUT A BIT TRICKY SOMETIMES,low,placeholder,Graduated College,1575215643293,placeholder,10,female,ENGLISH,5a9bff3b6475f900019ffc51,Describe these results of <strong>Riverside</strong> so as to make it appear as if there is a <strong>low</strong> success rate without lying.,most|most|wrong,12|12|3|3|3,In this exam,of the students got,of the questions,.,13,"%{""instances"" => [%{""n_col"" => 12, ""rows"" => [12, 12, 3, 3, 3]}], ""number"" => 13, ""sequence"" => [""ACCCC"", ""AACCC"", ""ABCCC""], ""truth_table"" => []}",Sun Dec 01 2019 15:37:54 GMT+0000 (Greenwich Mean Time),1575214674933,1|1|1|1|1|1|1|1|1|1|1|1|1|1|1|1|1|1|1|1|1|1|1|1|1|1|1|0|0|0|0|0|0|0|0|0|1|1|1|0|0|0|0|0|0|0|0|0|1|1|1|0|0|0|0|0|0|0|0|0,16.139333333333333,main_trials,7
457,,14376,68,all|most|some|none,all|most|some|none,right|wrong,5,THIS WAS ENJOYABLE BUT A BIT TRICKY SOMETIMES,high,placeholder,Graduated College,1575215643293,placeholder,10,female,ENGLISH,5a9bff3b6475f900019ffc51,Describe these results of <strong>Green Valley</strong> so as to make it appear as if there is a <strong>high</strong> success rate without lying.,some|all|right,12|12|0|0|0,In this exam,of the students got,of the questions,.,4,"%{""instances"" => [%{""n_col"" => 12, ""rows"" => [12, 12, 0, 0, 0]}], ""number"" => 4, ""sequence"" => [""ADDDD"", ""AADDD"", ""ABDDD"", ""ACDDD""], ""truth_table"" => []}",Sun Dec 01 2019 15:37:54 GMT+0000 (Greenwich Mean Time),1575214674933,1|1|1|1|1|1|1|1|1|1|1|1|1|1|1|1|1|1|1|1|1|1|1|1|0|0|0|0|0|0|0|0|0|0|0|0|0|0|0|0|0|0|0|0|0|0|0|0|0|0|0|0|0|0|0|0|0|0|0|0,16.139333333333333,main_trials,8
457,,11060,68,all|most|some|none,all|most|some|none,right|wrong,5,THIS WAS ENJOYABLE BUT A BIT TRICKY SOMETIMES,low,placeholder,Graduated College,1575215643293,placeholder,10,female,ENGLISH,5a9bff3b6475f900019ffc51,Describe these results of <strong>Riverside</strong> so as to make it appear as if there is a <strong>low</strong> success rate without lying.,some|all|wrong,12|12|9|0|0,In this exam,of the students got,of the questions,.,8,"%{""instances"" => [%{""n_col"" => 12, ""rows"" => [12, 12, 9, 0, 0]}], ""number"" => 8, ""sequence"" => [""ABBBD"", ""ABBDD"", ""AABDD"", ""ABBBD"", ""ABBCD"", ""AABCD""], ""truth_table"" => []}",Sun Dec 01 2019 15:37:54 GMT+0000 (Greenwich Mean Time),1575214674933,1|1|1|1|1|1|1|1|1|1|1|1|1|1|1|1|1|1|1|1|1|1|1|1|1|1|1|1|1|1|1|1|1|0|0|0|0|0|0|0|0|0|0|0|0|0|0|0|0|0|0|0|0|0|0|0|0|0|0|0,16.139333333333333,main_trials,9
457,,17616,68,all|most|some|none,all|most|some|none,right|wrong,5,THIS WAS ENJOYABLE BUT A BIT TRICKY SOMETIMES,low,placeholder,Graduated College,1575215643293,placeholder,10,female,ENGLISH,5a9bff3b6475f900019ffc51,Describe these results of <strong>Riverside</strong> so as to make it appear as if there is a <strong>low</strong> success rate without lying.,most|all|wrong,3|3|0|0|0,In this exam,of the students got,of the questions,.,2,"%{""instances"" => [%{""n_col"" => 12, ""rows"" => [3, 3, 0, 0, 0]}], ""number"" => 2, ""sequence"" => [""CDDDD"", ""CCDDD""], ""truth_table"" => []}",Sun Dec 01 2019 15:37:54 GMT+0000 (Greenwich Mean Time),1575214674933,1|1|1|0|0|0|0|0|0|0|0|0|1|1|1|0|0|0|0|0|0|0|0|0|0|0|0|0|0|0|0|0|0|0|0|0|0|0|0|0|0|0|0|0|0|0|0|0|0|0|0|0|0|0|0|0|0|0|0|0,16.139333333333333,main_trials,10
457,,12155,68,all|most|some|none,all|most|some|none,right|wrong,5,THIS WAS ENJOYABLE BUT A BIT TRICKY SOMETIMES,high,placeholder,Graduated College,1575215643293,placeholder,10,female,ENGLISH,5a9bff3b6475f900019ffc51,Describe these results of <strong>Green Valley</strong> so as to make it appear as if there is a <strong>high</strong> success rate without lying.,most|some|right,3|3|3|0|0,In this exam,of the students got,of the questions,.,5,"%{""instances"" => [%{""n_col"" => 12, ""rows"" => [3, 3, 3, 0, 0]}], ""number"" => 5, ""sequence"" => [""CCCDD"", ""CCCCD""], ""truth_table"" => []}",Sun Dec 01 2019 15:37:54 GMT+0000 (Greenwich Mean Time),1575214674933,1|1|1|0|0|0|0|0|0|0|0|0|1|1|1|0|0|0|0|0|0|0|0|0|1|1|1|0|0|0|0|0|0|0|0|0|0|0|0|0|0|0|0|0|0|0|0|0|0|0|0|0|0|0|0|0|0|0|0|0,16.139333333333333,main_trials,11
457,,10067,68,all|most|some|none,all|most|some|none,right|wrong,5,THIS WAS ENJOYABLE BUT A BIT TRICKY SOMETIMES,high,placeholder,Graduated College,1575215643293,placeholder,10,female,ENGLISH,5a9bff3b6475f900019ffc51,Describe these results of <strong>Green Valley</strong> so as to make it appear as if there is a <strong>high</strong> success rate without lying.,all||,9|9|9|9|9,In this exam,of the students got,of the questions,.,17,"%{""instances"" => [%{""n_col"" => 12, ""rows"" => '\t\t\t\t\t'}], ""number"" => 17, ""sequence"" => [""BBBBB""], ""truth_table"" => []}",Sun Dec 01 2019 15:37:54 GMT+0000 (Greenwich Mean Time),1575214674933,1|1|1|1|1|1|1|1|1|0|0|0|1|1|1|1|1|1|1|1|1|0|0|0|1|1|1|1|1|1|1|1|1|0|0|0|1|1|1|1|1|1|1|1|1|0|0|0|1|1|1|1|1|1|1|1|1|0|0|0,16.139333333333333,main_trials,12
457,,29996,68,all|most|some|none,all|most|some|none,right|wrong,5,THIS WAS ENJOYABLE BUT A BIT TRICKY SOMETIMES,low,placeholder,Graduated College,1575215643293,placeholder,10,female,ENGLISH,5a9bff3b6475f900019ffc51,Describe these results of <strong>Riverside</strong> so as to make it appear as if there is a <strong>low</strong> success rate without lying.,some|some|wrong,12|12|12|9|9,In this exam,of the students got,of the questions,.,19,"%{""instances"" => [%{""n_col"" => 12, ""rows"" => '\f\f\f\t\t'}], ""number"" => 19, ""sequence"" => [""AAABB"", ""AAAAB""], ""truth_table"" => []}",Sun Dec 01 2019 15:37:54 GMT+0000 (Greenwich Mean Time),1575214674933,1|1|1|1|1|1|1|1|1|1|1|1|1|1|1|1|1|1|1|1|1|1|1|1|1|1|1|1|1|1|1|1|1|1|1|1|1|1|1|1|1|1|1|1|1|0|0|0|1|1|1|1|1|1|1|1|1|0|0|0,16.139333333333333,main_trials,13
457,,10029,68,all|most|some|none,all|most|some|none,right|wrong,5,THIS WAS ENJOYABLE BUT A BIT TRICKY SOMETIMES,low,placeholder,Graduated College,1575215643293,placeholder,10,female,ENGLISH,5a9bff3b6475f900019ffc51,Describe these results of <strong>Riverside</strong> so as to make it appear as if there is a <strong>low</strong> success rate without lying.,most|all|wrong,9|9|0|0|0,In this exam,of the students got,of the questions,.,3,"%{""instances"" => [%{""n_col"" => 12, ""rows"" => [9, 9, 0, 0, 0]}], ""number"" => 3, ""sequence"" => [""BDDDD"", ""BBDDD"", ""BCDDD""], ""truth_table"" => []}",Sun Dec 01 2019 15:37:54 GMT+0000 (Greenwich Mean Time),1575214674933,1|1|1|1|1|1|1|1|1|0|0|0|1|1|1|1|1|1|1|1|1|0|0|0|0|0|0|0|0|0|0|0|0|0|0|0|0|0|0|0|0|0|0|0|0|0|0|0|0|0|0|0|0|0|0|0|0|0|0|0,16.139333333333333,main_trials,14
457,,44451,68,all|most|some|none,all|most|some|none,right|wrong,5,THIS WAS ENJOYABLE BUT A BIT TRICKY SOMETIMES,high,placeholder,Graduated College,1575215643293,placeholder,10,female,ENGLISH,5a9bff3b6475f900019ffc51,Describe these results of <strong>Green Valley</strong> so as to make it appear as if there is a <strong>high</strong> success rate without lying.,most|some|right,12|12|9|3|3,In this exam,of the students got,of the questions,.,15,"%{""instances"" => [%{""n_col"" => 12, ""rows"" => [12, 12, 9, 3, 3]}], ""number"" => 15, ""sequence"" => [""ABBBC"", ""ABBCC"", ""AABCC"", ""AABBC""], ""truth_table"" => []}",Sun Dec 01 2019 15:37:54 GMT+0000 (Greenwich Mean Time),1575214674933,1|1|1|1|1|1|1|1|1|1|1|1|1|1|1|1|1|1|1|1|1|1|1|1|1|1|1|1|1|1|1|1|1|0|0|0|1|1|1|0|0|0|0|0|0|0|0|0|1|1|1|0|0|0|0|0|0|0|0|0,16.139333333333333,main_trials,15
457,,16996,68,all|most|some|none,all|most|some|none,right|wrong,5,THIS WAS ENJOYABLE BUT A BIT TRICKY SOMETIMES,high,placeholder,Graduated College,1575215643293,placeholder,10,female,ENGLISH,5a9bff3b6475f900019ffc51,Describe these results of <strong>Green Valley</strong> so as to make it appear as if there is a <strong>high</strong> success rate without lying.,all|most|right,12|12|9|9|9,In this exam,of the students got,of the questions,.,18,"%{""instances"" => [%{""n_col"" => 12, ""rows"" => '\f\f\t\t\t'}], ""number"" => 18, ""sequence"" => [""ABBBB"", ""AABBB""], ""truth_table"" => []}",Sun Dec 01 2019 15:37:54 GMT+0000 (Greenwich Mean Time),1575214674933,1|1|1|1|1|1|1|1|1|1|1|1|1|1|1|1|1|1|1|1|1|1|1|1|1|1|1|1|1|1|1|1|1|0|0|0|1|1|1|1|1|1|1|1|1|0|0|0|1|1|1|1|1|1|1|1|1|0|0|0,16.139333333333333,main_trials,16
457,,12448,68,all|most|some|none,all|most|some|none,right|wrong,5,THIS WAS ENJOYABLE BUT A BIT TRICKY SOMETIMES,high,placeholder,Graduated College,1575215643293,placeholder,10,female,ENGLISH,5a9bff3b6475f900019ffc51,Describe these results of <strong>Green Valley</strong> so as to make it appear as if there is a <strong>high</strong> success rate without lying.,some|all|right,12|12|3|0|0,In this exam,of the students got,of the questions,.,1,"%{""instances"" => [%{""n_col"" => 12, ""rows"" => [12, 12, 3, 0, 0]}], ""number"" => 1, ""sequence"" => [""ACCCD"", ""ACCDD"", ""AACDD"", ""AACCD"", ""ABCDD"", ""ABCCD""], ""truth_table"" => []}",Sun Dec 01 2019 15:37:54 GMT+0000 (Greenwich Mean Time),1575214674933,1|1|1|1|1|1|1|1|1|1|1|1|1|1|1|1|1|1|1|1|1|1|1|1|1|1|1|0|0|0|0|0|0|0|0|0|0|0|0|0|0|0|0|0|0|0|0|0|0|0|0|0|0|0|0|0|0|0|0|0,16.139333333333333,main_trials,17
457,,23255,68,all|most|some|none,all|most|some|none,right|wrong,5,THIS WAS ENJOYABLE BUT A BIT TRICKY SOMETIMES,high,placeholder,Graduated College,1575215643293,placeholder,10,female,ENGLISH,5a9bff3b6475f900019ffc51,Describe these results of <strong>Green Valley</strong> so as to make it appear as if there is a <strong>high</strong> success rate without lying.,none|all|right,0|0|0|0|0,In this exam,of the students got,of the questions,.,10,"%{""instances"" => [%{""n_col"" => 12, ""rows"" => [0, 0, 0, 0, 0]}], ""number"" => 10, ""sequence"" => [""DDDDD""], ""truth_table"" => []}",Sun Dec 01 2019 15:37:54 GMT+0000 (Greenwich Mean Time),1575214674933,0|0|0|0|0|0|0|0|0|0|0|0|0|0|0|0|0|0|0|0|0|0|0|0|0|0|0|0|0|0|0|0|0|0|0|0|0|0|0|0|0|0|0|0|0|0|0|0|0|0|0|0|0|0|0|0|0|0|0|0,16.139333333333333,main_trials,18
457,,12580,68,all|most|some|none,all|most|some|none,right|wrong,5,THIS WAS ENJOYABLE BUT A BIT TRICKY SOMETIMES,low,placeholder,Graduated College,1575215643293,placeholder,10,female,ENGLISH,5a9bff3b6475f900019ffc51,Describe these results of <strong>Riverside</strong> so as to make it appear as if there is a <strong>low</strong> success rate without lying.,all|most|wrong,3|3|3|3|3,In this exam,of the students got,of the questions,.,11,"%{""instances"" => [%{""n_col"" => 12, ""rows"" => [3, 3, 3, 3, 3]}], ""number"" => 11, ""sequence"" => [""CCCCC""], ""truth_table"" => []}",Sun Dec 01 2019 15:37:54 GMT+0000 (Greenwich Mean Time),1575214674933,1|1|1|0|0|0|0|0|0|0|0|0|1|1|1|0|0|0|0|0|0|0|0|0|1|1|1|0|0|0|0|0|0|0|0|0|1|1|1|0|0|0|0|0|0|0|0|0|1|1|1|0|0|0|0|0|0|0|0|0,16.139333333333333,main_trials,19
457,,21669,68,all|most|some|none,all|most|some|none,right|wrong,5,THIS WAS ENJOYABLE BUT A BIT TRICKY SOMETIMES,low,placeholder,Graduated College,1575215643293,placeholder,10,female,ENGLISH,5a9bff3b6475f900019ffc51,Describe these results of <strong>Riverside</strong> so as to make it appear as if there is a <strong>low</strong> success rate without lying.,some|all|wrong,9|9|3|0|0,In this exam,of the students got,of the questions,.,6,"%{""instances"" => [%{""n_col"" => 12, ""rows"" => [9, 9, 3, 0, 0]}], ""number"" => 6, ""sequence"" => [""BCCCD"", ""BCCDD"", ""BBCDD"", ""BBCCD""], ""truth_table"" => []}",Sun Dec 01 2019 15:37:54 GMT+0000 (Greenwich Mean Time),1575214674933,1|1|1|1|1|1|1|1|1|0|0|0|1|1|1|1|1|1|1|1|1|0|0|0|1|1|1|0|0|0|0|0|0|0|0|0|0|0|0|0|0|0|0|0|0|0|0|0|0|0|0|0|0|0|0|0|0|0|0|0,16.139333333333333,main_trials,20
456,,63626,32,all|most|some|none,all|most|some|none,right|wrong,5,This was fun,high,placeholder,Graduated High School,1575215576110,placeholder,10,female,English,5d1355386ea950001a4fd4fe,Describe these results of <strong>Green Valley</strong> so as to make it appear as if there is a <strong>high</strong> success rate without lying.,some|all|right,12|12|0|0|0,In this exam,of the students got,of the questions,.,4,"%{""instances"" => [%{""n_col"" => 12, ""rows"" => [12, 12, 0, 0, 0]}], ""number"" => 4, ""sequence"" => [""ADDDD"", ""AADDD"", ""ABDDD"", ""ACDDD""], ""truth_table"" => []}",Sun Dec 01 2019 09:39:59 GMT-0600 (Central Standard Time),1575214799810,1|1|1|1|1|1|1|1|1|1|1|1|1|1|1|1|1|1|1|1|1|1|1|1|0|0|0|0|0|0|0|0|0|0|0|0|0|0|0|0|0|0|0|0|0|0|0|0|0|0|0|0|0|0|0|0|0|0|0|0,12.938333333333333,training_trials,1
456,,25065,32,all|most|some|none,all|most|some|none,right|wrong,5,This was fun,low,placeholder,Graduated High School,1575215576110,placeholder,10,female,English,5d1355386ea950001a4fd4fe,Describe these results of <strong>Riverside</strong> so as to make it appear as if there is a <strong>low</strong> success rate without lying.,most|all|wrong,12|12|0|0|0,In this exam,of the students got,of the questions,.,4,"%{""instances"" => [%{""n_col"" => 12, ""rows"" => [12, 12, 0, 0, 0]}], ""number"" => 4, ""sequence"" => [""ADDDD"", ""AADDD"", ""ABDDD"", ""ACDDD""], ""truth_table"" => []}",Sun Dec 01 2019 09:39:59 GMT-0600 (Central Standard Time),1575214799810,1|1|1|1|1|1|1|1|1|1|1|1|1|1|1|1|1|1|1|1|1|1|1|1|0|0|0|0|0|0|0|0|0|0|0|0|0|0|0|0|0|0|0|0|0|0|0|0|0|0|0|0|0|0|0|0|0|0|0|0,12.938333333333333,training_trials,2
456,,70638,32,all|most|some|none,all|most|some|none,right|wrong,5,This was fun,high,placeholder,Graduated High School,1575215576110,placeholder,10,female,English,5d1355386ea950001a4fd4fe,Describe these results of <strong>Green Valley</strong> so as to make it appear as if there is a <strong>high</strong> success rate without lying.,none|all|wrong,9|9|3|3|3,In this exam,of the students got,of the questions,.,12,"%{""instances"" => [%{""n_col"" => 12, ""rows"" => [9, 9, 3, 3, 3]}], ""number"" => 12, ""sequence"" => [""BCCCC"", ""BBCCC""], ""truth_table"" => []}",Sun Dec 01 2019 09:39:59 GMT-0600 (Central Standard Time),1575214799810,1|1|1|1|1|1|1|1|1|0|0|0|1|1|1|1|1|1|1|1|1|0|0|0|1|1|1|0|0|0|0|0|0|0|0|0|1|1|1|0|0|0|0|0|0|0|0|0|1|1|1|0|0|0|0|0|0|0|0|0,12.938333333333333,training_trials,3
456,,15878,32,all|most|some|none,all|most|some|none,right|wrong,5,This was fun,low,placeholder,Graduated High School,1575215576110,placeholder,10,female,English,5d1355386ea950001a4fd4fe,Describe these results of <strong>Riverside</strong> so as to make it appear as if there is a <strong>low</strong> success rate without lying.,all|some|wrong,9|9|3|3|3,In this exam,of the students got,of the questions,.,12,"%{""instances"" => [%{""n_col"" => 12, ""rows"" => [9, 9, 3, 3, 3]}], ""number"" => 12, ""sequence"" => [""BCCCC"", ""BBCCC""], ""truth_table"" => []}",Sun Dec 01 2019 09:39:59 GMT-0600 (Central Standard Time),1575214799810,1|1|1|1|1|1|1|1|1|0|0|0|1|1|1|1|1|1|1|1|1|0|0|0|1|1|1|0|0|0|0|0|0|0|0|0|1|1|1|0|0|0|0|0|0|0|0|0|1|1|1|0|0|0|0|0|0|0|0|0,12.938333333333333,training_trials,4
456,,16211,32,all|most|some|none,all|most|some|none,right|wrong,5,This was fun,low,placeholder,Graduated High School,1575215576110,placeholder,10,female,English,5d1355386ea950001a4fd4fe,Describe these results of <strong>Riverside</strong> so as to make it appear as if there is a <strong>low</strong> success rate without lying.,all|some|wrong,9|9|9|9|9,In this exam,of the students got,of the questions,.,17,"%{""instances"" => [%{""n_col"" => 12, ""rows"" => '\t\t\t\t\t'}], ""number"" => 17, ""sequence"" => [""BBBBB""], ""truth_table"" => []}",Sun Dec 01 2019 09:39:59 GMT-0600 (Central Standard Time),1575214799810,1|1|1|1|1|1|1|1|1|0|0|0|1|1|1|1|1|1|1|1|1|0|0|0|1|1|1|1|1|1|1|1|1|0|0|0|1|1|1|1|1|1|1|1|1|0|0|0|1|1|1|1|1|1|1|1|1|0|0|0,12.938333333333333,main_trials,1
456,,14666,32,all|most|some|none,all|most|some|none,right|wrong,5,This was fun,low,placeholder,Graduated High School,1575215576110,placeholder,10,female,English,5d1355386ea950001a4fd4fe,Describe these results of <strong>Riverside</strong> so as to make it appear as if there is a <strong>low</strong> success rate without lying.,all|most|wrong,3|3|3|0|0,In this exam,of the students got,of the questions,.,5,"%{""instances"" => [%{""n_col"" => 12, ""rows"" => [3, 3, 3, 0, 0]}], ""number"" => 5, ""sequence"" => [""CCCDD"", ""CCCCD""], ""truth_table"" => []}",Sun Dec 01 2019 09:39:59 GMT-0600 (Central Standard Time),1575214799810,1|1|1|0|0|0|0|0|0|0|0|0|1|1|1|0|0|0|0|0|0|0|0|0|1|1|1|0|0|0|0|0|0|0|0|0|0|0|0|0|0|0|0|0|0|0|0|0|0|0|0|0|0|0|0|0|0|0|0|0,12.938333333333333,main_trials,2
