submission_id,QUD,RT,age,bias,choice_options_1,choice_options_2,choice_options_3,column_number,comments,condition,correct,education,endTime,expected,experiment_id,gender,languages,prolific_id,question,response,row_number,sentence_chunk_1,sentence_chunk_2,sentence_chunk_3,sentence_chunk_4,startDate,startTime,stimulus,timeSpent,trial_name,trial_number
11659,,37493,28,0.9,all|most|many|some|few|none,all|most|many|some|few|none,right|wrong,12,n/a,high,NA,Higher Degree,1580380639093,NA,82,female,English,5d516ec3ca214b001640d9fe,Describe these results of <strong>Green Valley</strong> so as to make it appear as if there is a <strong>high</strong> success rate without lying.,most|all|right,5,In this exam,of the students got,of the questions,.,Thu Jan 30 2020 10:30:03 GMT+0000 (Greenwich Mean Time),1580380203172,0|1|1|0|0|0|0|0|0|0|0|0|0|0|0|0|0|0|0|0|0|0|0|0|0|0|0|0|0|1|0|0|0|0|0|0|0|0|0|0|0|0|0|1|0|0|0|0|0|0|0|0|0|0|0|0|0|0|0|0,7.26535,training_trials,1
11659,,36236,28,0.2,all|most|many|some|few|none,all|most|many|some|few|none,right|wrong,12,n/a,high,NA,Higher Degree,1580380639093,NA,82,female,English,5d516ec3ca214b001640d9fe,Describe these results of <strong>Green Valley</strong> so as to make it appear as if there is a <strong>high</strong> success rate without lying.,some|many|right,5,In this exam,of the students got,of the questions,.,Thu Jan 30 2020 10:30:03 GMT+0000 (Greenwich Mean Time),1580380203172,0|1|1|1|1|0|1|1|1|1|1|1|0|1|1|1|1|1|0|1|1|0|1|1|1|1|1|0|1|1|0|1|0|0|1|0|1|0|1|1|0|1|1|1|1|1|1|1|1|1|1|1|0|1|1|1|1|1|1|1,7.26535,training_trials,2
11659,,30311,28,0.5,all|most|many|some|few|none,all|most|many|some|few|none,right|wrong,12,n/a,low,NA,Higher Degree,1580380639093,NA,82,female,English,5d516ec3ca214b001640d9fe,Describe these results of <strong>Riverside</strong> so as to make it appear as if there is a <strong>low</strong> success rate without lying.,many|some|wrong,5,In this exam,of the students got,of the questions,.,Thu Jan 30 2020 10:30:03 GMT+0000 (Greenwich Mean Time),1580380203172,0|1|0|1|0|1|1|0|1|0|0|0|0|1|1|1|0|0|0|0|0|1|0|0|1|0|0|0|0|1|1|0|0|0|0|0|0|1|0|0|0|1|0|0|1|1|1|0|0|0|0|0|0|1|1|1|1|1|0|1,7.26535,training_trials,3
11659,,13751,28,0.8,all|most|many|some|few|none,all|most|many|some|few|none,right|wrong,12,n/a,low,placeholder,Higher Degree,1580380639093,placeholder,82,female,English,5d516ec3ca214b001640d9fe,Describe these results of <strong>Riverside</strong> so as to make it appear as if there is a <strong>low</strong> success rate without lying.,some|some|right,5,In this exam,of the students got,of the questions,.,Thu Jan 30 2020 10:30:03 GMT+0000 (Greenwich Mean Time),1580380203172,1|0|1|0|0|0|1|0|0|1|0|0|0|0|0|0|0|1|0|0|0|0|0|0|0|0|0|0|1|0|0|0|0|0|0|0|0|0|0|1|1|0|1|0|0|0|1|0|0|0|0|1|0|1|0|0|0|0|0|0,7.26535,main_trials,1
11659,,18063,28,0.4,all|most|many|some|few|none,all|most|many|some|few|none,right|wrong,12,n/a,high,placeholder,Higher Degree,1580380639093,placeholder,82,female,English,5d516ec3ca214b001640d9fe,Describe these results of <strong>Green Valley</strong> so as to make it appear as if there is a <strong>high</strong> success rate without lying.,some|many|right,5,In this exam,of the students got,of the questions,.,Thu Jan 30 2020 10:30:03 GMT+0000 (Greenwich Mean Time),1580380203172,0|1|1|1|1|1|0|1|1|1|1|1|1|1|1|1|1|1|0|1|0|0|1|0|1|1|0|1|1|1|1|1|1|1|0|1|1|0|1|1|1|0|1|1|0|1|1|1|0|1|0|0|1|1|1|1|1|1|1|0,7.26535,main_trials,2
11659,,17574,28,0.2,all|most|many|some|few|none,all|most|many|some|few|none,right|wrong,12,n/a,low,placeholder,Higher Degree,1580380639093,placeholder,82,female,English,5d516ec3ca214b001640d9fe,Describe these results of <strong>Riverside</strong> so as to make it appear as if there is a <strong>low</strong> success rate without lying.,few|many|wrong,5,In this exam,of the students got,of the questions,.,Thu Jan 30 2020 10:30:03 GMT+0000 (Greenwich Mean Time),1580380203172,0|1|0|1|1|0|1|1|1|1|1|1|1|1|1|1|1|1|1|0|0|1|0|0|1|0|1|1|1|0|1|1|0|1|1|1|1|1|1|1|1|1|0|1|0|1|0|1|1|1|1|0|1|0|1|0|0|1|1|1,7.26535,main_trials,3
11659,,8191,28,0.5,all|most|many|some|few|none,all|most|many|some|few|none,right|wrong,12,n/a,low,placeholder,Higher Degree,1580380639093,placeholder,82,female,English,5d516ec3ca214b001640d9fe,Describe these results of <strong>Riverside</strong> so as to make it appear as if there is a <strong>low</strong> success rate without lying.,some|some|right,5,In this exam,of the students got,of the questions,.,Thu Jan 30 2020 10:30:03 GMT+0000 (Greenwich Mean Time),1580380203172,0|1|0|1|1|1|0|0|0|0|0|1|0|1|1|0|0|0|0|0|1|1|1|1|1|0|0|0|1|1|0|1|1|0|1|0|0|1|1|0|1|1|0|1|1|1|0|0|1|1|1|0|0|0|1|1|1|1|1|0,7.26535,main_trials,4
11659,,11975,28,0.8,all|most|many|some|few|none,all|most|many|some|few|none,right|wrong,12,n/a,high,placeholder,Higher Degree,1580380639093,placeholder,82,female,English,5d516ec3ca214b001640d9fe,Describe these results of <strong>Green Valley</strong> so as to make it appear as if there is a <strong>high</strong> success rate without lying.,most|all|right,5,In this exam,of the students got,of the questions,.,Thu Jan 30 2020 10:30:03 GMT+0000 (Greenwich Mean Time),1580380203172,0|1|0|0|0|0|0|1|0|0|0|0|0|0|0|0|0|0|0|0|0|1|1|0|1|1|0|0|0|0|0|0|0|0|0|0|0|0|0|1|0|1|1|0|1|0|0|0|0|0|0|0|0|0|0|0|0|0|0|0,7.26535,main_trials,5
11659,,11671,28,0.7,all|most|many|some|few|none,all|most|many|some|few|none,right|wrong,12,n/a,high,placeholder,Higher Degree,1580380639093,placeholder,82,female,English,5d516ec3ca214b001640d9fe,Describe these results of <strong>Green Valley</strong> so as to make it appear as if there is a <strong>high</strong> success rate without lying.,most|all|right,5,In this exam,of the students got,of the questions,.,Thu Jan 30 2020 10:30:03 GMT+0000 (Greenwich Mean Time),1580380203172,0|0|0|0|0|0|0|1|0|0|0|1|0|1|0|0|0|0|0|0|1|0|0|0|0|1|0|0|0|1|0|0|1|1|0|0|0|0|0|0|0|1|0|0|1|0|0|0|0|0|0|0|0|0|0|1|1|0|0|1,7.26535,main_trials,6
11659,,9429,28,0.6,all|most|many|some|few|none,all|most|many|some|few|none,right|wrong,12,n/a,high,placeholder,Higher Degree,1580380639093,placeholder,82,female,English,5d516ec3ca214b001640d9fe,Describe these results of <strong>Green Valley</strong> so as to make it appear as if there is a <strong>high</strong> success rate without lying.,many|many|right,5,In this exam,of the students got,of the questions,.,Thu Jan 30 2020 10:30:03 GMT+0000 (Greenwich Mean Time),1580380203172,0|0|1|0|1|0|0|1|0|0|1|1|1|0|1|1|1|0|1|0|1|1|0|0|0|1|1|1|0|0|0|0|0|0|0|0|1|1|0|1|1|1|1|1|0|1|0|0|0|1|0|0|0|1|0|1|0|0|1|1,7.26535,main_trials,7
11659,,12775,28,0.6,all|most|many|some|few|none,all|most|many|some|few|none,right|wrong,12,n/a,low,placeholder,Higher Degree,1580380639093,placeholder,82,female,English,5d516ec3ca214b001640d9fe,Describe these results of <strong>Riverside</strong> so as to make it appear as if there is a <strong>low</strong> success rate without lying.,many|many|wrong,5,In this exam,of the students got,of the questions,.,Thu Jan 30 2020 10:30:03 GMT+0000 (Greenwich Mean Time),1580380203172,0|0|1|1|0|0|0|1|0|0|0|1|0|1|0|1|0|0|0|0|1|1|0|1|1|0|0|1|1|1|0|0|0|0|0|0|1|0|1|0|0|1|0|0|1|1|1|1|0|1|1|0|1|0|0|0|1|0|0|0,7.26535,main_trials,8
11659,,15046,28,0.4,all|most|many|some|few|none,all|most|many|some|few|none,right|wrong,12,n/a,low,placeholder,Higher Degree,1580380639093,placeholder,82,female,English,5d516ec3ca214b001640d9fe,Describe these results of <strong>Riverside</strong> so as to make it appear as if there is a <strong>low</strong> success rate without lying.,none|all|right,5,In this exam,of the students got,of the questions,.,Thu Jan 30 2020 10:30:03 GMT+0000 (Greenwich Mean Time),1580380203172,1|1|1|1|1|1|1|1|1|0|1|0|1|0|0|1|0|0|1|0|1|1|1|0|1|1|1|1|1|1|0|1|1|0|1|1|1|1|0|0|1|1|0|0|1|0|1|1|1|1|0|1|0|0|1|1|0|1|1|0,7.26535,main_trials,9
11659,,25813,28,0.2,all|most|many|some|few|none,all|most|many|some|few|none,right|wrong,12,n/a,high,placeholder,Higher Degree,1580380639093,placeholder,82,female,English,5d516ec3ca214b001640d9fe,Describe these results of <strong>Green Valley</strong> so as to make it appear as if there is a <strong>high</strong> success rate without lying.,none|all|wrong,5,In this exam,of the students got,of the questions,.,Thu Jan 30 2020 10:30:03 GMT+0000 (Greenwich Mean Time),1580380203172,1|1|1|1|1|1|1|0|1|1|1|1|1|1|1|1|1|1|0|1|1|1|1|1|0|1|1|1|0|0|1|1|1|1|1|1|1|1|1|1|0|1|1|1|1|1|1|1|1|1|1|0|1|1|0|1|0|1|1|1,7.26535,main_trials,10
11659,,18686,28,0.3,all|most|many|some|few|none,all|most|many|some|few|none,right|wrong,12,n/a,high,placeholder,Higher Degree,1580380639093,placeholder,82,female,English,5d516ec3ca214b001640d9fe,Describe these results of <strong>Green Valley</strong> so as to make it appear as if there is a <strong>high</strong> success rate without lying.,none|all|wrong,5,In this exam,of the students got,of the questions,.,Thu Jan 30 2020 10:30:03 GMT+0000 (Greenwich Mean Time),1580380203172,1|1|1|1|1|1|0|1|1|1|0|1|1|1|1|0|1|1|1|1|0|1|1|1|0|1|1|1|1|1|0|1|1|1|0|1|1|0|0|1|1|1|1|1|0|0|0|0|1|1|1|0|1|0|1|0|1|1|1|1,7.26535,main_trials,11
11659,,17406,28,0.5,all|most|many|some|few|none,all|most|many|some|few|none,right|wrong,12,n/a,high,placeholder,Higher Degree,1580380639093,placeholder,82,female,English,5d516ec3ca214b001640d9fe,Describe these results of <strong>Green Valley</strong> so as to make it appear as if there is a <strong>high</strong> success rate without lying.,most|many|right,5,In this exam,of the students got,of the questions,.,Thu Jan 30 2020 10:30:03 GMT+0000 (Greenwich Mean Time),1580380203172,0|0|0|1|0|0|0|0|1|0|1|1|0|1|1|0|1|1|1|0|0|0|1|1|1|1|0|0|1|0|1|0|1|1|0|1|0|0|1|1|1|0|0|0|1|1|0|0|0|0|1|1|1|0|0|1|0|0|0|0,7.26535,main_trials,12
11659,,11135,28,0.7,all|most|many|some|few|none,all|most|many|some|few|none,right|wrong,12,n/a,low,placeholder,Higher Degree,1580380639093,placeholder,82,female,English,5d516ec3ca214b001640d9fe,Describe these results of <strong>Riverside</strong> so as to make it appear as if there is a <strong>low</strong> success rate without lying.,none|all|right,5,In this exam,of the students got,of the questions,.,Thu Jan 30 2020 10:30:03 GMT+0000 (Greenwich Mean Time),1580380203172,1|1|1|0|1|0|0|0|1|0|0|1|0|0|0|0|1|0|0|0|0|0|1|0|0|0|0|0|1|1|0|0|0|0|1|0|0|0|0|0|0|0|1|0|1|0|0|0|1|1|0|0|0|1|0|1|0|0|1|1,7.26535,main_trials,13
11659,,13060,28,0.3,all|most|many|some|few|none,all|most|many|some|few|none,right|wrong,12,n/a,low,placeholder,Higher Degree,1580380639093,placeholder,82,female,English,5d516ec3ca214b001640d9fe,Describe these results of <strong>Riverside</strong> so as to make it appear as if there is a <strong>low</strong> success rate without lying.,few|many|right,5,In this exam,of the students got,of the questions,.,Thu Jan 30 2020 10:30:03 GMT+0000 (Greenwich Mean Time),1580380203172,0|0|1|1|1|1|1|0|0|0|1|1|1|1|0|0|1|0|1|0|1|1|1|1|1|1|1|1|1|1|1|1|1|1|1|0|0|0|0|0|0|1|1|0|1|1|0|1|1|0|1|1|1|1|0|1|0|1|1|1,7.26535,main_trials,14
11661,,67594,36,0.2,all|most|many|some|few|none,all|most|many|some|few|none,right|wrong,12,,high,NA,Higher Degree,1580380669554,NA,82,male,"English, Hungarian",55d10c94cc2b1800102be64b,Describe these results of <strong>Green Valley</strong> so as to make it appear as if there is a <strong>high</strong> success rate without lying.,most|some|right,5,In this exam,of the students got,of the questions,.,Thu Jan 30 2020 11:29:57 GMT+0100 (Central European Standard Time),1580380197564,1|0|1|1|0|1|1|0|1|1|1|1|1|1|1|1|1|1|1|1|1|1|1|1|1|1|1|0|1|1|1|1|1|1|1|1|1|0|1|1|0|1|1|1|0|1|1|1|1|0|1|0|1|1|0|1|1|1|1|1,7.8665,training_trials,1
11661,,31954,36,0.5,all|most|many|some|few|none,all|most|many|some|few|none,right|wrong,12,,low,NA,Higher Degree,1580380669554,NA,82,male,"English, Hungarian",55d10c94cc2b1800102be64b,Describe these results of <strong>Riverside</strong> so as to make it appear as if there is a <strong>low</strong> success rate without lying.,most|some|wrong,5,In this exam,of the students got,of the questions,.,Thu Jan 30 2020 11:29:57 GMT+0100 (Central European Standard Time),1580380197564,1|1|1|0|0|0|1|1|0|1|0|1|0|0|0|0|0|0|0|0|0|0|1|0|0|0|1|1|1|1|0|1|1|1|0|0|0|1|1|0|0|1|0|1|0|1|0|1|1|1|0|0|0|1|1|0|1|0|0|0,7.8665,training_trials,2
11661,,15424,36,0.9,all|most|many|some|few|none,all|most|many|some|few|none,right|wrong,12,,high,NA,Higher Degree,1580380669554,NA,82,male,"English, Hungarian",55d10c94cc2b1800102be64b,Describe these results of <strong>Green Valley</strong> so as to make it appear as if there is a <strong>high</strong> success rate without lying.,most|most|right,5,In this exam,of the students got,of the questions,.,Thu Jan 30 2020 11:29:57 GMT+0100 (Central European Standard Time),1580380197564,0|0|0|0|0|0|0|0|0|0|0|0|0|0|0|1|0|0|0|0|0|0|0|0|1|0|0|0|0|1|0|1|0|0|0|0|0|0|0|0|0|0|0|0|0|0|1|0|0|0|0|0|1|0|0|0|0|0|0|0,7.8665,training_trials,3
11661,,13070,36,0.3,all|most|many|some|few|none,all|most|many|some|few|none,right|wrong,12,,high,placeholder,Higher Degree,1580380669554,placeholder,82,male,"English, Hungarian",55d10c94cc2b1800102be64b,Describe these results of <strong>Green Valley</strong> so as to make it appear as if there is a <strong>high</strong> success rate without lying.,most|some|right,5,In this exam,of the students got,of the questions,.,Thu Jan 30 2020 11:29:57 GMT+0100 (Central European Standard Time),1580380197564,1|1|1|0|0|1|1|1|0|1|1|1|1|1|0|1|0|1|1|1|1|1|1|0|1|1|1|1|0|1|1|1|1|1|1|1|1|1|1|0|1|0|1|0|1|1|1|0|1|0|1|1|0|0|1|1|0|1|1|1,7.8665,main_trials,1
11661,,6700,36,0.7,all|most|many|some|few|none,all|most|many|some|few|none,right|wrong,12,,high,placeholder,Higher Degree,1580380669554,placeholder,82,male,"English, Hungarian",55d10c94cc2b1800102be64b,Describe these results of <strong>Green Valley</strong> so as to make it appear as if there is a <strong>high</strong> success rate without lying.,most|most|right,5,In this exam,of the students got,of the questions,.,Thu Jan 30 2020 11:29:57 GMT+0100 (Central European Standard Time),1580380197564,0|0|1|0|1|1|0|0|0|1|0|0|0|1|1|0|0|0|0|0|0|0|0|0|0|0|0|0|0|1|0|1|0|0|1|1|0|0|0|0|1|0|0|0|1|0|0|0|1|0|1|1|0|1|0|0|0|0|1|0,7.8665,main_trials,2
11661,,27456,36,0.8,all|most|many|some|few|none,all|most|many|some|few|none,right|wrong,12,,low,placeholder,Higher Degree,1580380669554,placeholder,82,male,"English, Hungarian",55d10c94cc2b1800102be64b,Describe these results of <strong>Riverside</strong> so as to make it appear as if there is a <strong>low</strong> success rate without lying.,many|some|wrong,5,In this exam,of the students got,of the questions,.,Thu Jan 30 2020 11:29:57 GMT+0100 (Central European Standard Time),1580380197564,0|0|1|0|0|0|0|0|0|1|0|0|0|1|1|0|0|0|0|1|0|0|1|0|1|0|1|0|0|0|1|1|0|0|0|0|0|0|0|0|0|0|0|1|0|0|1|1|0|0|0|0|1|0|0|0|1|1|1|0,7.8665,main_trials,3
11661,,21283,36,0.5,all|most|many|some|few|none,all|most|many|some|few|none,right|wrong,12,,low,placeholder,Higher Degree,1580380669554,placeholder,82,male,"English, Hungarian",55d10c94cc2b1800102be64b,Describe these results of <strong>Riverside</strong> so as to make it appear as if there is a <strong>low</strong> success rate without lying.,all|some|wrong,5,In this exam,of the students got,of the questions,.,Thu Jan 30 2020 11:29:57 GMT+0100 (Central European Standard Time),1580380197564,0|0|1|0|0|0|0|0|0|1|1|0|0|0|1|0|0|0|1|0|0|0|1|1|0|1|1|0|0|0|0|0|1|1|1|1|0|1|1|1|1|0|1|0|1|0|0|1|0|1|0|1|1|1|0|1|0|1|0|1,7.8665,main_trials,4
11661,,11958,36,0.4,all|most|many|some|few|none,all|most|many|some|few|none,right|wrong,12,,low,placeholder,Higher Degree,1580380669554,placeholder,82,male,"English, Hungarian",55d10c94cc2b1800102be64b,Describe these results of <strong>Riverside</strong> so as to make it appear as if there is a <strong>low</strong> success rate without lying.,all|many|wrong,5,In this exam,of the students got,of the questions,.,Thu Jan 30 2020 11:29:57 GMT+0100 (Central European Standard Time),1580380197564,1|1|1|1|1|0|0|1|0|0|1|0|1|1|1|1|0|0|0|1|0|1|1|0|1|0|0|1|1|1|1|1|1|0|1|1|1|1|0|0|0|1|0|1|1|1|1|1|0|1|1|0|1|0|0|1|0|1|1|1,7.8665,main_trials,5
11661,,15664,36,0.5,all|most|many|some|few|none,all|most|many|some|few|none,right|wrong,12,,high,placeholder,Higher Degree,1580380669554,placeholder,82,male,"English, Hungarian",55d10c94cc2b1800102be64b,Describe these results of <strong>Green Valley</strong> so as to make it appear as if there is a <strong>high</strong> success rate without lying.,some|many|right,5,In this exam,of the students got,of the questions,.,Thu Jan 30 2020 11:29:57 GMT+0100 (Central European Standard Time),1580380197564,1|1|1|0|1|0|0|1|1|1|1|1|1|1|0|1|1|0|0|0|0|0|0|0|1|0|0|1|1|0|1|1|0|1|1|0|0|0|1|1|0|0|1|1|0|0|1|1|1|0|0|1|1|1|1|1|0|1|1|0,7.8665,main_trials,6
11661,,6864,36,0.4,all|most|many|some|few|none,all|most|many|some|few|none,right|wrong,12,,high,placeholder,Higher Degree,1580380669554,placeholder,82,male,"English, Hungarian",55d10c94cc2b1800102be64b,Describe these results of <strong>Green Valley</strong> so as to make it appear as if there is a <strong>high</strong> success rate without lying.,most|many|right,5,In this exam,of the students got,of the questions,.,Thu Jan 30 2020 11:29:57 GMT+0100 (Central European Standard Time),1580380197564,1|1|1|1|0|1|1|1|0|1|0|0|0|0|0|0|1|1|1|1|0|1|1|0|1|0|1|0|0|1|1|0|0|0|0|1|1|1|1|1|0|0|1|0|0|1|0|0|0|1|1|1|0|0|1|1|1|0|1|1,7.8665,main_trials,7
11661,,17265,36,0.2,all|most|many|some|few|none,all|most|many|some|few|none,right|wrong,12,,high,placeholder,Higher Degree,1580380669554,placeholder,82,male,"English, Hungarian",55d10c94cc2b1800102be64b,Describe these results of <strong>Green Valley</strong> so as to make it appear as if there is a <strong>high</strong> success rate without lying.,most|some|right,5,In this exam,of the students got,of the questions,.,Thu Jan 30 2020 11:29:57 GMT+0100 (Central European Standard Time),1580380197564,1|1|1|1|1|1|0|1|0|1|1|1|1|0|1|0|1|1|0|1|0|1|1|1|1|1|1|1|0|1|1|0|1|1|1|1|1|1|1|0|1|1|1|1|0|1|0|1|0|1|0|1|1|1|1|0|1|0|1|1,7.8665,main_trials,8
11661,,27256,36,0.6,all|most|many|some|few|none,all|most|many|some|few|none,right|wrong,12,,low,placeholder,Higher Degree,1580380669554,placeholder,82,male,"English, Hungarian",55d10c94cc2b1800102be64b,Describe these results of <strong>Riverside</strong> so as to make it appear as if there is a <strong>low</strong> success rate without lying.,all|some|wrong,5,In this exam,of the students got,of the questions,.,Thu Jan 30 2020 11:29:57 GMT+0100 (Central European Standard Time),1580380197564,0|1|0|1|1|0|0|0|0|0|1|1|0|0|0|0|1|0|0|1|1|1|0|1|0|1|1|0|1|0|0|0|1|0|0|0|0|0|0|1|1|0|0|0|0|0|0|0|0|1|1|0|1|0|1|0|1|1|0|0,7.8665,main_trials,9
11661,,7319,36,0.2,all|most|many|some|few|none,all|most|many|some|few|none,right|wrong,12,,low,placeholder,Higher Degree,1580380669554,placeholder,82,male,"English, Hungarian",55d10c94cc2b1800102be64b,Describe these results of <strong>Riverside</strong> so as to make it appear as if there is a <strong>low</strong> success rate without lying.,most|most|wrong,5,In this exam,of the students got,of the questions,.,Thu Jan 30 2020 11:29:57 GMT+0100 (Central European Standard Time),1580380197564,1|1|1|1|1|1|1|1|1|1|0|0|1|1|1|0|1|1|1|0|1|1|1|0|1|1|1|1|1|0|1|0|1|1|1|0|1|1|1|0|1|1|1|0|1|1|1|1|1|1|0|1|1|1|0|1|1|1|1|0,7.8665,main_trials,10
11661,,8584,36,0.8,all|most|many|some|few|none,all|most|many|some|few|none,right|wrong,12,,high,placeholder,Higher Degree,1580380669554,placeholder,82,male,"English, Hungarian",55d10c94cc2b1800102be64b,Describe these results of <strong>Green Valley</strong> so as to make it appear as if there is a <strong>high</strong> success rate without lying.,most|most|right,5,In this exam,of the students got,of the questions,.,Thu Jan 30 2020 11:29:57 GMT+0100 (Central European Standard Time),1580380197564,1|0|0|0|0|0|0|0|0|1|0|0|0|0|0|0|0|1|1|1|1|1|0|0|0|0|0|0|0|0|0|0|0|0|0|1|0|0|0|0|0|0|0|0|0|0|0|0|0|0|0|0|0|0|0|0|0|0|0|1,7.8665,main_trials,11
11661,,6066,36,0.3,all|most|many|some|few|none,all|most|many|some|few|none,right|wrong,12,,low,placeholder,Higher Degree,1580380669554,placeholder,82,male,"English, Hungarian",55d10c94cc2b1800102be64b,Describe these results of <strong>Riverside</strong> so as to make it appear as if there is a <strong>low</strong> success rate without lying.,most|most|wrong,5,In this exam,of the students got,of the questions,.,Thu Jan 30 2020 11:29:57 GMT+0100 (Central European Standard Time),1580380197564,1|1|1|1|0|1|1|0|1|1|1|1|1|1|0|1|0|1|1|1|1|1|1|1|1|1|1|0|0|0|1|0|1|1|1|1|1|0|1|1|1|0|1|1|0|0|1|0|1|1|0|1|1|1|1|0|1|1|1|1,7.8665,main_trials,12
11661,,5676,36,0.6,all|most|many|some|few|none,all|most|many|some|few|none,right|wrong,12,,high,placeholder,Higher Degree,1580380669554,placeholder,82,male,"English, Hungarian",55d10c94cc2b1800102be64b,Describe these results of <strong>Green Valley</strong> so as to make it appear as if there is a <strong>high</strong> success rate without lying.,most|most|right,5,In this exam,of the students got,of the questions,.,Thu Jan 30 2020 11:29:57 GMT+0100 (Central European Standard Time),1580380197564,0|1|1|0|0|1|0|0|1|1|0|0|0|0|1|1|1|0|0|0|0|1|0|1|1|1|0|0|0|0|1|0|0|1|1|0|1|1|1|0|0|1|0|1|0|1|0|1|0|0|0|0|0|0|0|1|1|1|0|0,7.8665,main_trials,13
11661,,17328,36,0.7,all|most|many|some|few|none,all|most|many|some|few|none,right|wrong,12,,low,placeholder,Higher Degree,1580380669554,placeholder,82,male,"English, Hungarian",55d10c94cc2b1800102be64b,Describe these results of <strong>Riverside</strong> so as to make it appear as if there is a <strong>low</strong> success rate without lying.,most|some|wrong,5,In this exam,of the students got,of the questions,.,Thu Jan 30 2020 11:29:57 GMT+0100 (Central European Standard Time),1580380197564,0|0|1|0|0|1|0|0|0|0|1|0|0|0|0|0|0|0|1|1|0|0|0|1|0|0|1|0|1|0|1|0|1|1|0|0|0|0|0|0|0|0|0|1|0|0|0|0|1|1|0|0|0|0|1|0|0|0|0|0,7.8665,main_trials,14
11673,,70408,31,0.5,all|most|many|some|few|none,all|most|many|some|few|none,right|wrong,12,,low,NA,Graduated High School,1580381183430,NA,82,male,English,5d9b74744175ca001730513a,Describe these results of <strong>Riverside</strong> so as to make it appear as if there is a <strong>low</strong> success rate without lying.,all|many|wrong,5,In this exam,of the students got,of the questions,.,Thu Jan 30 2020 10:30:52 GMT+0000 (Greenwich Mean Time),1580380252690,1|0|1|0|1|0|0|0|0|1|0|0|1|1|0|0|0|1|1|0|1|0|1|1|0|0|1|1|0|0|1|0|0|0|0|1|0|1|0|1|1|0|1|1|1|0|0|0|0|0|0|1|1|0|1|1|1|1|0|0,15.512333333333334,training_trials,1
11673,,58423,31,0.2,all|most|many|some|few|none,all|most|many|some|few|none,right|wrong,12,,high,NA,Graduated High School,1580381183430,NA,82,male,English,5d9b74744175ca001730513a,Describe these results of <strong>Green Valley</strong> so as to make it appear as if there is a <strong>high</strong> success rate without lying.,most|some|right,5,In this exam,of the students got,of the questions,.,Thu Jan 30 2020 10:30:52 GMT+0000 (Greenwich Mean Time),1580380252690,1|1|1|1|1|0|1|1|1|0|0|1|1|1|1|1|1|1|1|0|1|1|0|1|1|1|0|1|1|1|1|1|1|1|1|0|1|1|1|1|1|1|1|1|1|1|1|1|1|1|1|1|1|1|0|1|1|1|1|0,15.512333333333334,training_trials,2
11673,,29958,31,0.9,all|most|many|some|few|none,all|most|many|some|few|none,right|wrong,12,,high,NA,Graduated High School,1580381183430,NA,82,male,English,5d9b74744175ca001730513a,Describe these results of <strong>Green Valley</strong> so as to make it appear as if there is a <strong>high</strong> success rate without lying.,all|most|right,5,In this exam,of the students got,of the questions,.,Thu Jan 30 2020 10:30:52 GMT+0000 (Greenwich Mean Time),1580380252690,0|0|0|0|0|0|0|0|0|0|0|0|0|0|0|0|0|0|0|0|0|0|0|1|0|0|0|0|0|0|0|0|0|0|0|0|0|0|0|0|0|1|0|0|0|0|0|0|0|1|0|0|0|0|0|0|0|0|0|1,15.512333333333334,training_trials,3
11673,,32545,31,0.2,all|most|many|some|few|none,all|most|many|some|few|none,right|wrong,12,,high,placeholder,Graduated High School,1580381183430,placeholder,82,male,English,5d9b74744175ca001730513a,Describe these results of <strong>Green Valley</strong> so as to make it appear as if there is a <strong>high</strong> success rate without lying.,most|some|right,5,In this exam,of the students got,of the questions,.,Thu Jan 30 2020 10:30:52 GMT+0000 (Greenwich Mean Time),1580380252690,1|0|0|1|1|1|1|1|1|0|1|1|0|1|1|1|1|1|1|1|1|1|1|1|0|1|1|1|1|1|1|1|1|0|0|1|1|1|1|1|1|1|1|1|1|1|1|1|1|0|1|1|1|1|1|1|0|0|1|1,15.512333333333334,main_trials,1
11673,,26021,31,0.2,all|most|many|some|few|none,all|most|many|some|few|none,right|wrong,12,,low,placeholder,Graduated High School,1580381183430,placeholder,82,male,English,5d9b74744175ca001730513a,Describe these results of <strong>Riverside</strong> so as to make it appear as if there is a <strong>low</strong> success rate without lying.,all|most|wrong,5,In this exam,of the students got,of the questions,.,Thu Jan 30 2020 10:30:52 GMT+0000 (Greenwich Mean Time),1580380252690,1|1|1|0|1|0|1|1|0|1|0|1|1|0|1|1|1|1|0|1|0|1|1|1|1|1|1|1|1|1|1|1|1|1|1|1|1|1|0|1|1|0|0|0|1|1|1|0|1|0|0|1|1|1|1|1|0|1|1|1,15.512333333333334,main_trials,2
11673,,46466,31,0.5,all|most|many|some|few|none,all|most|many|some|few|none,right|wrong,12,,high,placeholder,Graduated High School,1580381183430,placeholder,82,male,English,5d9b74744175ca001730513a,Describe these results of <strong>Green Valley</strong> so as to make it appear as if there is a <strong>high</strong> success rate without lying.,all|many|right,5,In this exam,of the students got,of the questions,.,Thu Jan 30 2020 10:30:52 GMT+0000 (Greenwich Mean Time),1580380252690,1|1|0|1|0|1|1|1|1|1|0|1|0|1|0|0|1|0|0|0|1|0|1|0|1|0|0|1|1|1|1|1|1|1|1|0|0|0|0|0|1|1|1|0|0|0|0|0|0|1|0|1|1|1|1|0|1|0|1|1,15.512333333333334,main_trials,3
11673,,31528,31,0.3,all|most|many|some|few|none,all|most|many|some|few|none,right|wrong,12,,low,placeholder,Graduated High School,1580381183430,placeholder,82,male,English,5d9b74744175ca001730513a,Describe these results of <strong>Riverside</strong> so as to make it appear as if there is a <strong>low</strong> success rate without lying.,none|most|right,5,In this exam,of the students got,of the questions,.,Thu Jan 30 2020 10:30:52 GMT+0000 (Greenwich Mean Time),1580380252690,1|1|0|1|1|0|0|1|1|0|0|1|1|1|1|1|1|1|0|0|1|0|0|1|1|0|1|1|1|1|1|1|1|0|1|1|1|1|1|1|0|0|0|1|1|0|1|1|1|0|1|1|1|1|1|1|1|1|1|0,15.512333333333334,main_trials,4
11673,,25497,31,0.4,all|most|many|some|few|none,all|most|many|some|few|none,right|wrong,12,,high,placeholder,Graduated High School,1580381183430,placeholder,82,male,English,5d9b74744175ca001730513a,Describe these results of <strong>Green Valley</strong> so as to make it appear as if there is a <strong>high</strong> success rate without lying.,most|many|right,5,In this exam,of the students got,of the questions,.,Thu Jan 30 2020 10:30:52 GMT+0000 (Greenwich Mean Time),1580380252690,0|0|0|1|1|1|0|1|1|0|0|1|1|1|1|1|1|1|1|0|1|1|1|1|0|1|1|1|0|1|0|1|1|0|1|0|1|0|1|1|0|0|1|0|1|0|0|0|1|1|0|1|1|1|0|0|1|1|0|0,15.512333333333334,main_trials,5
11673,,17061,31,0.4,all|most|many|some|few|none,all|most|many|some|few|none,right|wrong,12,,low,placeholder,Graduated High School,1580381183430,placeholder,82,male,English,5d9b74744175ca001730513a,Describe these results of <strong>Riverside</strong> so as to make it appear as if there is a <strong>low</strong> success rate without lying.,all|many|wrong,5,In this exam,of the students got,of the questions,.,Thu Jan 30 2020 10:30:52 GMT+0000 (Greenwich Mean Time),1580380252690,1|1|0|1|1|1|1|0|1|1|1|0|1|1|0|1|1|0|0|1|1|0|1|1|0|0|1|0|1|1|0|1|0|1|1|1|0|1|0|1|1|0|1|1|1|1|1|1|1|0|1|1|0|0|1|1|1|1|1|1,15.512333333333334,main_trials,6
11673,,24044,31,0.5,all|most|many|some|few|none,all|most|many|some|few|none,right|wrong,12,,low,placeholder,Graduated High School,1580381183430,placeholder,82,male,English,5d9b74744175ca001730513a,Describe these results of <strong>Riverside</strong> so as to make it appear as if there is a <strong>low</strong> success rate without lying.,none|all|right,5,In this exam,of the students got,of the questions,.,Thu Jan 30 2020 10:30:52 GMT+0000 (Greenwich Mean Time),1580380252690,1|0|0|1|1|0|0|0|1|1|1|0|1|0|0|1|0|1|1|0|1|0|0|0|0|0|0|1|1|1|1|0|1|1|0|0|0|0|1|1|0|1|0|0|1|0|0|1|1|1|0|0|0|1|0|0|0|0|1|0,15.512333333333334,main_trials,7
11673,,43647,31,0.8,all|most|many|some|few|none,all|most|many|some|few|none,right|wrong,12,,low,placeholder,Graduated High School,1580381183430,placeholder,82,male,English,5d9b74744175ca001730513a,Describe these results of <strong>Riverside</strong> so as to make it appear as if there is a <strong>low</strong> success rate without lying.,all|some|wrong,5,In this exam,of the students got,of the questions,.,Thu Jan 30 2020 10:30:52 GMT+0000 (Greenwich Mean Time),1580380252690,0|0|0|0|1|0|0|0|1|0|0|1|0|0|0|0|0|0|0|0|0|1|0|0|0|0|0|1|1|0|1|0|0|0|0|1|0|0|1|1|0|1|0|0|0|0|1|0|0|1|0|0|0|1|0|0|1|0|0|0,15.512333333333334,main_trials,8
11673,,20561,31,0.6,all|most|many|some|few|none,all|most|many|some|few|none,right|wrong,12,,high,placeholder,Graduated High School,1580381183430,placeholder,82,male,English,5d9b74744175ca001730513a,Describe these results of <strong>Green Valley</strong> so as to make it appear as if there is a <strong>high</strong> success rate without lying.,all|most|right,5,In this exam,of the students got,of the questions,.,Thu Jan 30 2020 10:30:52 GMT+0000 (Greenwich Mean Time),1580380252690,0|1|0|1|0|1|1|0|0|0|0|0|1|0|0|0|0|0|1|0|1|0|1|0|0|1|1|0|0|1|0|0|0|0|0|0|1|1|0|0|1|1|0|1|0|0|0|0|0|1|0|0|0|1|0|0|0|0|0|1,15.512333333333334,main_trials,9
11673,,40171,31,0.6,all|most|many|some|few|none,all|most|many|some|few|none,right|wrong,12,,low,placeholder,Graduated High School,1580381183430,placeholder,82,male,English,5d9b74744175ca001730513a,Describe these results of <strong>Riverside</strong> so as to make it appear as if there is a <strong>low</strong> success rate without lying.,most|many|wrong,5,In this exam,of the students got,of the questions,.,Thu Jan 30 2020 10:30:52 GMT+0000 (Greenwich Mean Time),1580380252690,0|1|0|0|0|0|0|0|1|0|0|1|1|0|0|1|1|0|0|0|0|0|0|0|1|1|0|1|0|1|0|1|0|1|0|0|0|0|1|1|1|0|1|1|0|0|1|1|1|1|1|0|1|0|1|0|0|0|0|0,15.512333333333334,main_trials,10
11673,,24775,31,0.3,all|most|many|some|few|none,all|most|many|some|few|none,right|wrong,12,,high,placeholder,Graduated High School,1580381183430,placeholder,82,male,English,5d9b74744175ca001730513a,Describe these results of <strong>Green Valley</strong> so as to make it appear as if there is a <strong>high</strong> success rate without lying.,few|all|wrong,5,In this exam,of the students got,of the questions,.,Thu Jan 30 2020 10:30:52 GMT+0000 (Greenwich Mean Time),1580380252690,1|1|1|1|1|1|1|1|1|0|1|1|1|1|1|1|1|1|1|1|1|1|1|1|1|0|1|1|1|1|1|0|1|1|1|1|0|1|1|1|1|1|0|1|1|1|0|0|1|1|1|1|0|1|0|0|1|0|1|0,15.512333333333334,main_trials,11
11673,,29792,31,0.7,all|most|many|some|few|none,all|most|many|some|few|none,right|wrong,12,,low,placeholder,Graduated High School,1580381183430,placeholder,82,male,English,5d9b74744175ca001730513a,Describe these results of <strong>Riverside</strong> so as to make it appear as if there is a <strong>low</strong> success rate without lying.,all|some|wrong,5,In this exam,of the students got,of the questions,.,Thu Jan 30 2020 10:30:52 GMT+0000 (Greenwich Mean Time),1580380252690,1|0|0|0|0|1|0|0|0|0|1|1|1|0|1|0|1|1|0|0|0|1|1|0|1|1|0|0|1|0|0|0|0|0|0|0|1|1|0|1|0|1|0|0|1|0|0|0|0|0|0|0|0|1|0|0|0|0|0|0,15.512333333333334,main_trials,12
11673,,11324,31,0.8,all|most|many|some|few|none,all|most|many|some|few|none,right|wrong,12,,high,placeholder,Graduated High School,1580381183430,placeholder,82,male,English,5d9b74744175ca001730513a,Describe these results of <strong>Green Valley</strong> so as to make it appear as if there is a <strong>high</strong> success rate without lying.,all|most|right,5,In this exam,of the students got,of the questions,.,Thu Jan 30 2020 10:30:52 GMT+0000 (Greenwich Mean Time),1580380252690,1|0|0|0|0|0|0|0|0|1|0|0|0|0|0|0|0|0|0|0|0|1|0|0|0|0|0|0|0|0|1|0|0|0|1|0|0|0|0|0|0|0|0|0|0|0|1|0|0|0|0|0|1|0|1|0|0|0|1|1,15.512333333333334,main_trials,13
11673,,41242,31,0.7,all|most|many|some|few|none,all|most|many|some|few|none,right|wrong,12,,high,placeholder,Graduated High School,1580381183430,placeholder,82,male,English,5d9b74744175ca001730513a,Describe these results of <strong>Green Valley</strong> so as to make it appear as if there is a <strong>high</strong> success rate without lying.,most|most|right,5,In this exam,of the students got,of the questions,.,Thu Jan 30 2020 10:30:52 GMT+0000 (Greenwich Mean Time),1580380252690,1|1|0|0|1|0|0|0|0|1|0|0|0|1|0|0|1|1|0|1|0|0|1|1|1|0|0|0|1|0|0|1|1|0|0|0|0|0|0|1|0|1|0|0|1|0|0|1|0|0|0|0|1|1|1|1|0|0|0|1,15.512333333333334,main_trials,14
11667,,30750,29,0.5,all|most|many|some|few|none,all|most|many|some|few|none,right|wrong,12,"Very interesting, thank you.",low,NA,Graduated College,1580380843545,NA,82,male,English,5d3869444a0f0500198dc192,Describe these results of <strong>Riverside</strong> so as to make it appear as if there is a <strong>low</strong> success rate without lying.,none|all|right,5,In this exam,of the students got,of the questions,.,Thu Jan 30 2020 10:29:47 GMT+0000 (Greenwich Mean Time),1580380187189,1|0|0|0|0|1|0|1|1|1|0|0|1|1|0|0|1|0|1|0|1|1|0|1|1|0|1|0|1|1|0|0|0|1|0|1|1|1|0|1|0|0|0|0|0|0|1|1|0|0|0|0|0|0|0|0|0|1|1|1,10.939266666666667,training_trials,1
11667,,30389,29,0.2,all|most|many|some|few|none,all|most|many|some|few|none,right|wrong,12,"Very interesting, thank you.",high,NA,Graduated College,1580380843545,NA,82,male,English,5d3869444a0f0500198dc192,Describe these results of <strong>Green Valley</strong> so as to make it appear as if there is a <strong>high</strong> success rate without lying.,none|all|wrong,5,In this exam,of the students got,of the questions,.,Thu Jan 30 2020 10:29:47 GMT+0000 (Greenwich Mean Time),1580380187189,1|0|0|1|1|1|0|0|1|0|1|0|1|1|1|1|1|1|0|0|1|1|1|1|1|1|1|0|1|0|1|1|1|0|1|0|1|1|1|0|1|1|1|0|1|1|1|0|1|1|0|1|0|1|1|0|1|1|1|1,10.939266666666667,training_trials,2
11667,,18695,29,0.9,all|most|many|some|few|none,all|most|many|some|few|none,right|wrong,12,"Very interesting, thank you.",high,NA,Graduated College,1580380843545,NA,82,male,English,5d3869444a0f0500198dc192,Describe these results of <strong>Green Valley</strong> so as to make it appear as if there is a <strong>high</strong> success rate without lying.,most|most|right,5,In this exam,of the students got,of the questions,.,Thu Jan 30 2020 10:29:47 GMT+0000 (Greenwich Mean Time),1580380187189,0|0|0|0|0|0|1|0|0|0|0|0|0|0|0|0|0|0|1|0|0|0|1|0|0|0|0|0|0|0|0|0|1|1|0|0|0|0|0|0|1|0|0|0|0|0|0|0|0|1|0|0|0|0|1|0|0|0|1|0,10.939266666666667,training_trials,3
11667,,25839,29,0.2,all|most|many|some|few|none,all|most|many|some|few|none,right|wrong,12,"Very interesting, thank you.",low,placeholder,Graduated College,1580380843545,placeholder,82,male,English,5d3869444a0f0500198dc192,Describe these results of <strong>Riverside</strong> so as to make it appear as if there is a <strong>low</strong> success rate without lying.,most|most|wrong,5,In this exam,of the students got,of the questions,.,Thu Jan 30 2020 10:29:47 GMT+0000 (Greenwich Mean Time),1580380187189,1|1|1|1|0|0|1|1|0|1|1|0|1|1|1|1|1|0|1|1|1|1|1|1|1|1|1|0|1|0|1|1|1|1|1|1|1|1|1|1|1|1|0|1|1|0|1|1|1|1|1|1|1|1|1|1|1|1|1|1,10.939266666666667,main_trials,1
11667,,18735,29,0.7,all|most|many|some|few|none,all|most|many|some|few|none,right|wrong,12,"Very interesting, thank you.",low,placeholder,Graduated College,1580380843545,placeholder,82,male,English,5d3869444a0f0500198dc192,Describe these results of <strong>Riverside</strong> so as to make it appear as if there is a <strong>low</strong> success rate without lying.,none|all|right,5,In this exam,of the students got,of the questions,.,Thu Jan 30 2020 10:29:47 GMT+0000 (Greenwich Mean Time),1580380187189,0|1|0|0|1|0|0|0|0|0|0|0|0|1|0|0|1|0|0|1|0|0|0|0|0|0|0|1|0|1|0|0|0|0|0|0|0|1|0|0|0|0|0|1|0|0|0|1|1|1|0|1|0|1|1|1|1|0|0|1,10.939266666666667,main_trials,2
11667,,14230,29,0.7,all|most|many|some|few|none,all|most|many|some|few|none,right|wrong,12,"Very interesting, thank you.",high,placeholder,Graduated College,1580380843545,placeholder,82,male,English,5d3869444a0f0500198dc192,Describe these results of <strong>Green Valley</strong> so as to make it appear as if there is a <strong>high</strong> success rate without lying.,many|many|right,5,In this exam,of the students got,of the questions,.,Thu Jan 30 2020 10:29:47 GMT+0000 (Greenwich Mean Time),1580380187189,0|1|0|0|0|0|1|0|0|0|1|1|0|0|1|0|1|0|0|0|1|1|1|0|1|0|0|1|0|1|0|1|1|0|0|0|1|0|0|1|0|1|1|1|0|0|0|0|1|0|1|0|0|0|0|1|0|0|0|0,10.939266666666667,main_trials,3
11667,,13158,29,0.4,all|most|many|some|few|none,all|most|many|some|few|none,right|wrong,12,"Very interesting, thank you.",high,placeholder,Graduated College,1580380843545,placeholder,82,male,English,5d3869444a0f0500198dc192,Describe these results of <strong>Green Valley</strong> so as to make it appear as if there is a <strong>high</strong> success rate without lying.,none|all|wrong,5,In this exam,of the students got,of the questions,.,Thu Jan 30 2020 10:29:47 GMT+0000 (Greenwich Mean Time),1580380187189,0|0|0|1|1|0|1|1|1|1|1|1|0|1|1|0|1|1|0|0|1|0|1|1|0|0|0|1|1|0|0|0|1|1|0|1|1|1|1|0|1|1|1|0|0|1|0|0|1|1|1|1|0|1|1|0|1|1|0|0,10.939266666666667,main_trials,4
11667,,17119,29,0.4,all|most|many|some|few|none,all|most|many|some|few|none,right|wrong,12,"Very interesting, thank you.",low,placeholder,Graduated College,1580380843545,placeholder,82,male,English,5d3869444a0f0500198dc192,Describe these results of <strong>Riverside</strong> so as to make it appear as if there is a <strong>low</strong> success rate without lying.,most|many|wrong,5,In this exam,of the students got,of the questions,.,Thu Jan 30 2020 10:29:47 GMT+0000 (Greenwich Mean Time),1580380187189,1|0|1|1|0|1|0|1|0|0|0|1|1|1|0|0|0|1|1|0|1|1|1|0|0|1|0|1|1|1|0|1|1|1|0|1|1|0|1|1|0|1|1|1|0|1|0|1|1|0|1|1|1|1|1|0|0|0|1|0,10.939266666666667,main_trials,5
11667,,29927,29,0.2,all|most|many|some|few|none,all|most|many|some|few|none,right|wrong,12,"Very interesting, thank you.",high,placeholder,Graduated College,1580380843545,placeholder,82,male,English,5d3869444a0f0500198dc192,Describe these results of <strong>Green Valley</strong> so as to make it appear as if there is a <strong>high</strong> success rate without lying.,few|all|wrong,5,In this exam,of the students got,of the questions,.,Thu Jan 30 2020 10:29:47 GMT+0000 (Greenwich Mean Time),1580380187189,1|1|0|1|1|1|1|1|0|1|0|1|1|1|1|0|1|1|1|1|1|1|1|1|1|1|1|1|1|1|1|1|1|1|1|1|1|1|1|1|1|0|1|1|1|1|1|1|1|0|1|1|1|1|0|0|0|1|1|1,10.939266666666667,main_trials,6
11667,,25191,29,0.8,all|most|many|some|few|none,all|most|many|some|few|none,right|wrong,12,"Very interesting, thank you.",high,placeholder,Graduated College,1580380843545,placeholder,82,male,English,5d3869444a0f0500198dc192,Describe these results of <strong>Green Valley</strong> so as to make it appear as if there is a <strong>high</strong> success rate without lying.,most|most|right,5,In this exam,of the students got,of the questions,.,Thu Jan 30 2020 10:29:47 GMT+0000 (Greenwich Mean Time),1580380187189,0|0|0|0|0|0|0|0|0|1|0|0|0|1|1|0|0|0|0|1|0|0|1|1|1|0|0|0|0|0|0|0|1|1|0|0|1|0|0|0|0|0|0|0|0|0|0|1|1|0|0|1|0|0|0|0|0|0|0|0,10.939266666666667,main_trials,7
11667,,15079,29,0.8,all|most|many|some|few|none,all|most|many|some|few|none,right|wrong,12,"Very interesting, thank you.",low,placeholder,Graduated College,1580380843545,placeholder,82,male,English,5d3869444a0f0500198dc192,Describe these results of <strong>Riverside</strong> so as to make it appear as if there is a <strong>low</strong> success rate without lying.,few|all|right,5,In this exam,of the students got,of the questions,.,Thu Jan 30 2020 10:29:47 GMT+0000 (Greenwich Mean Time),1580380187189,0|0|0|0|0|0|0|0|0|0|0|0|0|1|0|1|0|1|0|0|0|1|0|1|0|0|0|0|1|0|0|0|1|0|1|0|0|0|1|1|0|0|1|1|0|0|0|0|0|0|0|0|0|0|0|0|0|0|1|1,10.939266666666667,main_trials,8
11667,,10975,29,0.5,all|most|many|some|few|none,all|most|many|some|few|none,right|wrong,12,"Very interesting, thank you.",low,placeholder,Graduated College,1580380843545,placeholder,82,male,English,5d3869444a0f0500198dc192,Describe these results of <strong>Riverside</strong> so as to make it appear as if there is a <strong>low</strong> success rate without lying.,none|all|right,5,In this exam,of the students got,of the questions,.,Thu Jan 30 2020 10:29:47 GMT+0000 (Greenwich Mean Time),1580380187189,1|1|0|1|0|1|1|0|1|1|1|1|1|0|0|0|0|1|0|1|0|1|1|0|0|0|0|0|1|1|0|1|1|1|0|1|0|1|0|0|0|1|1|0|1|0|1|1|0|1|1|1|0|0|1|0|0|0|0|0,10.939266666666667,main_trials,9
11667,,13776,29,0.6,all|most|many|some|few|none,all|most|many|some|few|none,right|wrong,12,"Very interesting, thank you.",high,placeholder,Graduated College,1580380843545,placeholder,82,male,English,5d3869444a0f0500198dc192,Describe these results of <strong>Green Valley</strong> so as to make it appear as if there is a <strong>high</strong> success rate without lying.,all|most|right,5,In this exam,of the students got,of the questions,.,Thu Jan 30 2020 10:29:47 GMT+0000 (Greenwich Mean Time),1580380187189,1|0|0|1|1|0|0|0|0|0|0|1|0|0|0|0|0|0|1|0|0|1|0|1|0|1|0|0|0|1|0|0|0|1|0|0|1|0|1|0|0|0|1|0|0|1|1|0|0|0|1|0|1|1|0|0|0|0|0|0,10.939266666666667,main_trials,10
11667,,12783,29,0.6,all|most|many|some|few|none,all|most|many|some|few|none,right|wrong,12,"Very interesting, thank you.",low,placeholder,Graduated College,1580380843545,placeholder,82,male,English,5d3869444a0f0500198dc192,Describe these results of <strong>Riverside</strong> so as to make it appear as if there is a <strong>low</strong> success rate without lying.,all|some|wrong,5,In this exam,of the students got,of the questions,.,Thu Jan 30 2020 10:29:47 GMT+0000 (Greenwich Mean Time),1580380187189,0|1|0|1|0|0|0|1|1|1|0|1|0|1|1|1|0|0|0|0|0|1|1|0|0|1|1|0|1|0|1|0|0|0|1|0|1|0|0|0|1|0|0|0|0|0|1|0|0|0|1|1|0|1|1|0|1|0|1|0,10.939266666666667,main_trials,11
11667,,14735,29,0.5,all|most|many|some|few|none,all|most|many|some|few|none,right|wrong,12,"Very interesting, thank you.",high,placeholder,Graduated College,1580380843545,placeholder,82,male,English,5d3869444a0f0500198dc192,Describe these results of <strong>Green Valley</strong> so as to make it appear as if there is a <strong>high</strong> success rate without lying.,none|all|wrong,5,In this exam,of the students got,of the questions,.,Thu Jan 30 2020 10:29:47 GMT+0000 (Greenwich Mean Time),1580380187189,1|0|1|0|0|0|0|0|0|1|1|1|1|0|0|1|1|1|1|0|0|0|0|1|0|0|1|1|1|0|1|0|0|0|0|1|1|1|0|0|1|1|0|0|1|1|0|1|0|0|0|1|1|0|0|0|0|0|1|1,10.939266666666667,main_trials,12
11667,,8455,29,0.3,all|most|many|some|few|none,all|most|many|some|few|none,right|wrong,12,"Very interesting, thank you.",low,placeholder,Graduated College,1580380843545,placeholder,82,male,English,5d3869444a0f0500198dc192,Describe these results of <strong>Riverside</strong> so as to make it appear as if there is a <strong>low</strong> success rate without lying.,most|most|wrong,5,In this exam,of the students got,of the questions,.,Thu Jan 30 2020 10:29:47 GMT+0000 (Greenwich Mean Time),1580380187189,1|1|0|1|0|0|1|0|1|1|1|0|1|1|1|1|1|0|0|1|1|0|1|1|0|1|1|1|0|1|1|0|0|1|0|1|1|1|0|1|1|1|1|1|1|1|1|0|1|1|0|1|1|0|1|0|1|1|1|1,10.939266666666667,main_trials,13
11667,,13679,29,0.3,all|most|many|some|few|none,all|most|many|some|few|none,right|wrong,12,"Very interesting, thank you.",high,placeholder,Graduated College,1580380843545,placeholder,82,male,English,5d3869444a0f0500198dc192,Describe these results of <strong>Green Valley</strong> so as to make it appear as if there is a <strong>high</strong> success rate without lying.,none|all|wrong,5,In this exam,of the students got,of the questions,.,Thu Jan 30 2020 10:29:47 GMT+0000 (Greenwich Mean Time),1580380187189,1|0|0|0|1|0|0|1|1|0|1|1|1|0|0|1|1|1|1|0|1|0|1|1|1|1|1|0|1|1|1|1|1|1|1|1|1|0|0|0|1|1|1|0|1|1|1|1|1|1|1|1|0|0|0|0|1|0|1|1,10.939266666666667,main_trials,14
11670,,35051,69,0.2,all|most|many|some|few|none,all|most|many|some|few|none,right|wrong,12,none thank you.,high,NA,Higher Degree,1580380889545,NA,82,male,English,5cd2ee8d66bd5c001747f52e,Describe these results of <strong>Green Valley</strong> so as to make it appear as if there is a <strong>high</strong> success rate without lying.,many|some|wrong,5,In this exam,of the students got,of the questions,.,Thu Jan 30 2020 10:29:50 GMT+0000 (Greenwich Mean Time),1580380190140,1|1|0|0|1|1|0|1|1|1|1|0|0|1|1|1|1|1|0|0|0|1|0|1|1|1|0|1|0|1|0|0|1|1|1|1|1|0|1|1|1|0|0|1|1|0|1|0|1|0|1|0|1|1|1|1|0|1|1|1,11.65675,training_trials,1
11670,,71739,69,0.5,all|most|many|some|few|none,all|most|many|some|few|none,right|wrong,12,none thank you.,low,NA,Higher Degree,1580380889545,NA,82,male,English,5cd2ee8d66bd5c001747f52e,Describe these results of <strong>Riverside</strong> so as to make it appear as if there is a <strong>low</strong> success rate without lying.,few|most|right,5,In this exam,of the students got,of the questions,.,Thu Jan 30 2020 10:29:50 GMT+0000 (Greenwich Mean Time),1580380190140,1|0|1|1|0|0|1|1|0|1|0|0|0|0|1|0|0|0|0|1|0|1|1|1|0|0|0|0|1|1|0|1|1|1|0|0|1|1|1|0|0|0|1|0|0|1|0|0|0|1|0|0|1|0|0|1|0|0|1|0,11.65675,training_trials,2
11670,,28630,69,0.9,all|most|many|some|few|none,all|most|many|some|few|none,right|wrong,12,none thank you.,high,NA,Higher Degree,1580380889545,NA,82,male,English,5cd2ee8d66bd5c001747f52e,Describe these results of <strong>Green Valley</strong> so as to make it appear as if there is a <strong>high</strong> success rate without lying.,all|most|right,5,In this exam,of the students got,of the questions,.,Thu Jan 30 2020 10:29:50 GMT+0000 (Greenwich Mean Time),1580380190140,0|0|0|0|0|0|0|0|0|0|0|0|0|0|0|0|1|0|0|1|0|0|0|0|0|0|0|0|0|0|0|0|0|0|0|0|0|0|0|0|1|0|0|0|0|0|0|0|0|1|0|1|1|0|0|0|0|1|0|0,11.65675,training_trials,3
11670,,32950,69,0.5,all|most|many|some|few|none,all|most|many|some|few|none,right|wrong,12,none thank you.,low,placeholder,Higher Degree,1580380889545,placeholder,82,male,English,5cd2ee8d66bd5c001747f52e,Describe these results of <strong>Riverside</strong> so as to make it appear as if there is a <strong>low</strong> success rate without lying.,few|many|right,5,In this exam,of the students got,of the questions,.,Thu Jan 30 2020 10:29:50 GMT+0000 (Greenwich Mean Time),1580380190140,1|1|1|0|0|1|0|1|0|0|0|0|1|1|1|1|0|0|1|0|1|0|0|1|1|0|1|1|0|0|0|1|1|1|1|0|0|0|0|1|1|0|0|1|1|1|1|1|0|1|0|1|1|0|0|1|0|1|0|1,11.65675,main_trials,1
11670,,30598,69,0.8,all|most|many|some|few|none,all|most|many|some|few|none,right|wrong,12,none thank you.,high,placeholder,Higher Degree,1580380889545,placeholder,82,male,English,5cd2ee8d66bd5c001747f52e,Describe these results of <strong>Green Valley</strong> so as to make it appear as if there is a <strong>high</strong> success rate without lying.,few|many|wrong,5,In this exam,of the students got,of the questions,.,Thu Jan 30 2020 10:29:50 GMT+0000 (Greenwich Mean Time),1580380190140,0|1|0|0|1|0|0|0|0|0|0|0|0|0|0|1|0|0|0|1|1|0|0|0|1|0|0|0|0|0|1|0|0|1|0|0|0|0|0|0|0|0|0|0|0|0|0|0|0|0|0|0|0|0|1|0|0|0|0|0,11.65675,main_trials,2
11670,,17981,69,0.2,all|most|many|some|few|none,all|most|many|some|few|none,right|wrong,12,none thank you.,low,placeholder,Higher Degree,1580380889545,placeholder,82,male,English,5cd2ee8d66bd5c001747f52e,Describe these results of <strong>Riverside</strong> so as to make it appear as if there is a <strong>low</strong> success rate without lying.,few|many|right,5,In this exam,of the students got,of the questions,.,Thu Jan 30 2020 10:29:50 GMT+0000 (Greenwich Mean Time),1580380190140,1|1|1|0|1|1|1|1|0|1|1|1|1|1|1|1|0|0|0|1|1|1|1|0|1|1|1|1|1|1|0|1|1|1|1|1|0|1|1|1|0|0|1|1|1|0|1|1|1|1|1|1|0|1|1|0|1|1|1|1,11.65675,main_trials,3
11670,,19869,69,0.4,all|most|many|some|few|none,all|most|many|some|few|none,right|wrong,12,none thank you.,low,placeholder,Higher Degree,1580380889545,placeholder,82,male,English,5cd2ee8d66bd5c001747f52e,Describe these results of <strong>Riverside</strong> so as to make it appear as if there is a <strong>low</strong> success rate without lying.,all|most|wrong,5,In this exam,of the students got,of the questions,.,Thu Jan 30 2020 10:29:50 GMT+0000 (Greenwich Mean Time),1580380190140,1|0|1|1|1|0|0|1|1|1|1|1|0|1|1|1|1|0|1|0|1|1|1|1|0|1|0|1|1|0|0|1|1|1|1|0|0|1|1|1|0|0|1|1|1|1|0|1|0|0|0|0|0|1|0|0|0|1|0|1,11.65675,main_trials,4
11670,,26877,69,0.2,all|most|many|some|few|none,all|most|many|some|few|none,right|wrong,12,none thank you.,high,placeholder,Higher Degree,1580380889545,placeholder,82,male,English,5cd2ee8d66bd5c001747f52e,Describe these results of <strong>Green Valley</strong> so as to make it appear as if there is a <strong>high</strong> success rate without lying.,all|many|right,5,In this exam,of the students got,of the questions,.,Thu Jan 30 2020 10:29:50 GMT+0000 (Greenwich Mean Time),1580380190140,1|1|1|0|1|1|1|1|1|1|0|1|1|1|1|1|1|0|1|1|1|0|1|1|0|1|1|1|1|0|1|1|1|1|1|1|1|1|0|1|1|1|0|1|1|1|1|0|1|0|1|0|1|1|1|1|0|1|1|0,11.65675,main_trials,5
11670,,20077,69,0.7,all|most|many|some|few|none,all|most|many|some|few|none,right|wrong,12,none thank you.,high,placeholder,Higher Degree,1580380889545,placeholder,82,male,English,5cd2ee8d66bd5c001747f52e,Describe these results of <strong>Green Valley</strong> so as to make it appear as if there is a <strong>high</strong> success rate without lying.,all|some|right,5,In this exam,of the students got,of the questions,.,Thu Jan 30 2020 10:29:50 GMT+0000 (Greenwich Mean Time),1580380190140,0|1|1|1|0|1|1|0|0|0|0|0|0|0|1|0|0|0|0|1|0|0|1|1|0|1|0|0|0|1|0|1|0|0|1|1|1|1|1|0|1|0|1|0|0|1|1|0|0|1|0|0|1|0|0|0|1|1|0|1,11.65675,main_trials,6
11670,,19573,69,0.6,all|most|many|some|few|none,all|most|many|some|few|none,right|wrong,12,none thank you.,high,placeholder,Higher Degree,1580380889545,placeholder,82,male,English,5cd2ee8d66bd5c001747f52e,Describe these results of <strong>Green Valley</strong> so as to make it appear as if there is a <strong>high</strong> success rate without lying.,many|few|wrong,5,In this exam,of the students got,of the questions,.,Thu Jan 30 2020 10:29:50 GMT+0000 (Greenwich Mean Time),1580380190140,0|1|0|0|0|1|1|0|1|0|0|1|0|0|0|0|0|0|0|0|0|1|0|0|1|1|1|1|0|0|0|1|0|0|0|0|1|0|0|0|1|1|0|1|0|0|0|0|1|0|1|1|1|0|1|1|1|1|0|0,11.65675,main_trials,7
11670,,31134,69,0.5,all|most|many|some|few|none,all|most|many|some|few|none,right|wrong,12,none thank you.,high,placeholder,Higher Degree,1580380889545,placeholder,82,male,English,5cd2ee8d66bd5c001747f52e,Describe these results of <strong>Green Valley</strong> so as to make it appear as if there is a <strong>high</strong> success rate without lying.,none|some|wrong,5,In this exam,of the students got,of the questions,.,Thu Jan 30 2020 10:29:50 GMT+0000 (Greenwich Mean Time),1580380190140,1|1|0|1|0|0|1|1|1|0|1|0|0|0|1|0|1|0|1|0|0|1|1|0|0|1|0|0|0|1|0|1|1|1|1|1|1|0|1|1|0|0|1|1|1|0|0|0|1|0|0|0|1|0|0|0|0|0|0|1,11.65675,main_trials,8
11670,,21125,69,0.7,all|most|many|some|few|none,all|most|many|some|few|none,right|wrong,12,none thank you.,low,placeholder,Higher Degree,1580380889545,placeholder,82,male,English,5cd2ee8d66bd5c001747f52e,Describe these results of <strong>Riverside</strong> so as to make it appear as if there is a <strong>low</strong> success rate without lying.,none|many|right,5,In this exam,of the students got,of the questions,.,Thu Jan 30 2020 10:29:50 GMT+0000 (Greenwich Mean Time),1580380190140,1|0|0|0|1|0|0|1|1|0|1|1|0|0|0|0|0|0|0|1|0|1|1|1|0|0|0|1|0|0|0|1|0|0|0|0|0|0|0|1|1|1|0|1|0|0|0|0|1|0|0|0|0|0|0|0|1|0|0|1,11.65675,main_trials,9
11670,,30285,69,0.8,all|most|many|some|few|none,all|most|many|some|few|none,right|wrong,12,none thank you.,low,placeholder,Higher Degree,1580380889545,placeholder,82,male,English,5cd2ee8d66bd5c001747f52e,Describe these results of <strong>Riverside</strong> so as to make it appear as if there is a <strong>low</strong> success rate without lying.,few|many|right,5,In this exam,of the students got,of the questions,.,Thu Jan 30 2020 10:29:50 GMT+0000 (Greenwich Mean Time),1580380190140,0|0|0|1|0|0|0|0|0|0|0|1|1|0|0|0|0|0|0|0|0|1|0|0|0|0|0|0|0|0|0|0|0|0|1|0|0|1|0|0|0|0|0|0|0|0|0|0|1|0|0|1|0|0|1|0|0|0|0|0,11.65675,main_trials,10
11670,,30814,69,0.3,all|most|many|some|few|none,all|most|many|some|few|none,right|wrong,12,none thank you.,high,placeholder,Higher Degree,1580380889545,placeholder,82,male,English,5cd2ee8d66bd5c001747f52e,Describe these results of <strong>Green Valley</strong> so as to make it appear as if there is a <strong>high</strong> success rate without lying.,many|most|right,5,In this exam,of the students got,of the questions,.,Thu Jan 30 2020 10:29:50 GMT+0000 (Greenwich Mean Time),1580380190140,1|1|0|1|1|1|1|0|1|1|1|1|1|0|1|1|1|1|0|1|1|1|0|1|1|0|1|1|1|1|1|1|1|0|1|0|1|0|0|0|1|1|0|1|0|1|0|1|1|1|0|0|1|1|1|0|1|0|1|1,11.65675,main_trials,11
11670,,25965,69,0.4,all|most|many|some|few|none,all|most|many|some|few|none,right|wrong,12,none thank you.,high,placeholder,Higher Degree,1580380889545,placeholder,82,male,English,5cd2ee8d66bd5c001747f52e,Describe these results of <strong>Green Valley</strong> so as to make it appear as if there is a <strong>high</strong> success rate without lying.,many|some|right,5,In this exam,of the students got,of the questions,.,Thu Jan 30 2020 10:29:50 GMT+0000 (Greenwich Mean Time),1580380190140,1|0|1|0|1|1|1|1|0|0|0|1|0|1|1|1|0|1|1|0|0|0|0|0|0|1|1|0|1|1|0|1|1|0|0|0|1|1|1|0|1|1|1|1|1|1|1|1|0|0|0|1|0|0|0|0|1|1|1|1,11.65675,main_trials,12
11670,,18046,69,0.6,all|most|many|some|few|none,all|most|many|some|few|none,right|wrong,12,none thank you.,low,placeholder,Higher Degree,1580380889545,placeholder,82,male,English,5cd2ee8d66bd5c001747f52e,Describe these results of <strong>Riverside</strong> so as to make it appear as if there is a <strong>low</strong> success rate without lying.,all|some|wrong,5,In this exam,of the students got,of the questions,.,Thu Jan 30 2020 10:29:50 GMT+0000 (Greenwich Mean Time),1580380190140,0|1|0|1|0|0|0|0|1|1|0|1|0|0|1|1|0|0|0|0|0|0|0|0|0|0|0|1|0|0|1|0|0|1|0|0|0|0|1|1|0|0|0|1|1|0|1|0|0|0|0|0|0|0|0|0|1|0|0|0,11.65675,main_trials,13
11670,,15974,69,0.3,all|most|many|some|few|none,all|most|many|some|few|none,right|wrong,12,none thank you.,low,placeholder,Higher Degree,1580380889545,placeholder,82,male,English,5cd2ee8d66bd5c001747f52e,Describe these results of <strong>Riverside</strong> so as to make it appear as if there is a <strong>low</strong> success rate without lying.,all|most|wrong,5,In this exam,of the students got,of the questions,.,Thu Jan 30 2020 10:29:50 GMT+0000 (Greenwich Mean Time),1580380190140,1|1|0|1|0|1|0|1|1|1|0|0|0|0|0|1|1|1|0|1|1|1|1|1|1|1|1|1|1|1|1|0|1|1|1|1|1|1|1|1|1|1|0|0|1|1|1|1|1|1|1|1|1|0|0|0|1|1|0|0,11.65675,main_trials,14
11647,,67417,38,0.2,all|most|many|some|few|none,all|most|many|some|few|none,right|wrong,12,,high,NA,Higher Degree,1580336209066,NA,82,male,English,5c3c753320c87d0001d902f7,Describe these results of <strong>Green Valley</strong> so as to make it appear as if there is a <strong>high</strong> success rate without lying.,all|some|right,5,In this exam,of the students got,of the questions,.,Wed Jan 29 2020 22:08:25 GMT+0000 (GMT Standard Time),1580335705674,1|1|1|1|0|1|1|1|0|1|1|1|0|1|1|1|0|1|1|1|0|0|1|0|1|1|1|1|0|0|0|1|0|1|1|0|1|1|1|1|1|1|1|1|1|1|1|0|1|1|1|1|1|1|1|0|1|1|0|1,8.389866666666666,training_trials,1
11647,,36835,38,0.5,all|most|many|some|few|none,all|most|many|some|few|none,right|wrong,12,,low,NA,Higher Degree,1580336209066,NA,82,male,English,5c3c753320c87d0001d902f7,Describe these results of <strong>Riverside</strong> so as to make it appear as if there is a <strong>low</strong> success rate without lying.,all|many|wrong,5,In this exam,of the students got,of the questions,.,Wed Jan 29 2020 22:08:25 GMT+0000 (GMT Standard Time),1580335705674,1|0|1|0|0|1|1|0|1|1|0|0|0|0|0|0|1|1|0|0|1|1|1|1|0|1|1|1|0|1|1|1|0|0|0|0|1|0|1|0|1|1|0|1|1|0|0|0|0|1|1|0|1|1|1|1|1|0|0|1,8.389866666666666,training_trials,2
11647,,19433,38,0.9,all|most|many|some|few|none,all|most|many|some|few|none,right|wrong,12,,high,NA,Higher Degree,1580336209066,NA,82,male,English,5c3c753320c87d0001d902f7,Describe these results of <strong>Green Valley</strong> so as to make it appear as if there is a <strong>high</strong> success rate without lying.,all|most|right,5,In this exam,of the students got,of the questions,.,Wed Jan 29 2020 22:08:25 GMT+0000 (GMT Standard Time),1580335705674,0|0|0|0|0|0|0|0|0|0|0|0|0|0|0|0|0|0|1|0|0|0|0|0|0|0|1|0|0|0|0|0|0|0|0|0|0|0|0|0|0|0|0|1|0|0|0|0|0|0|0|0|0|0|0|0|0|0|0|0,8.389866666666666,training_trials,3
11647,,19263,38,0.6,all|most|many|some|few|none,all|most|many|some|few|none,right|wrong,12,,low,placeholder,Higher Degree,1580336209066,placeholder,82,male,English,5c3c753320c87d0001d902f7,Describe these results of <strong>Riverside</strong> so as to make it appear as if there is a <strong>low</strong> success rate without lying.,all|some|wrong,5,In this exam,of the students got,of the questions,.,Wed Jan 29 2020 22:08:25 GMT+0000 (GMT Standard Time),1580335705674,0|0|1|0|0|0|0|1|0|0|0|0|0|0|1|0|0|0|1|1|0|1|1|0|0|0|1|0|0|0|0|1|0|0|1|0|0|1|0|0|0|1|0|0|1|1|1|0|1|1|0|0|0|1|0|1|0|0|1|1,8.389866666666666,main_trials,1
11647,,14349,38,0.3,all|most|many|some|few|none,all|most|many|some|few|none,right|wrong,12,,low,placeholder,Higher Degree,1580336209066,placeholder,82,male,English,5c3c753320c87d0001d902f7,Describe these results of <strong>Riverside</strong> so as to make it appear as if there is a <strong>low</strong> success rate without lying.,all|most|wrong,5,In this exam,of the students got,of the questions,.,Wed Jan 29 2020 22:08:25 GMT+0000 (GMT Standard Time),1580335705674,1|0|0|1|1|1|1|1|0|1|1|1|1|1|1|1|1|0|1|1|0|0|1|1|1|1|0|1|1|1|1|1|1|0|1|0|1|0|1|1|0|1|1|1|0|1|1|1|0|0|0|1|1|1|0|0|1|1|0|0,8.389866666666666,main_trials,2
11647,,18190,38,0.4,all|most|many|some|few|none,all|most|many|some|few|none,right|wrong,12,,low,placeholder,Higher Degree,1580336209066,placeholder,82,male,English,5c3c753320c87d0001d902f7,Describe these results of <strong>Riverside</strong> so as to make it appear as if there is a <strong>low</strong> success rate without lying.,all|most|wrong,5,In this exam,of the students got,of the questions,.,Wed Jan 29 2020 22:08:25 GMT+0000 (GMT Standard Time),1580335705674,1|1|1|1|0|0|1|0|0|0|1|1|1|1|1|1|0|0|1|1|1|1|0|1|0|1|1|0|1|1|1|1|0|1|1|1|1|0|1|0|1|1|1|1|1|0|1|0|0|1|1|0|0|0|1|1|0|1|0|0,8.389866666666666,main_trials,3
11647,,44885,38,0.2,all|most|many|some|few|none,all|most|many|some|few|none,right|wrong,12,,high,placeholder,Higher Degree,1580336209066,placeholder,82,male,English,5c3c753320c87d0001d902f7,Describe these results of <strong>Green Valley</strong> so as to make it appear as if there is a <strong>high</strong> success rate without lying.,many|some|right,5,In this exam,of the students got,of the questions,.,Wed Jan 29 2020 22:08:25 GMT+0000 (GMT Standard Time),1580335705674,1|1|1|1|1|1|1|1|1|1|1|1|1|1|1|1|1|1|1|1|1|1|0|1|1|1|1|1|0|1|1|0|1|1|1|1|1|1|1|1|1|1|1|1|1|1|1|1|0|1|1|1|1|0|0|1|0|1|1|1,8.389866666666666,main_trials,4
11647,,16298,38,0.7,all|most|many|some|few|none,all|most|many|some|few|none,right|wrong,12,,low,placeholder,Higher Degree,1580336209066,placeholder,82,male,English,5c3c753320c87d0001d902f7,Describe these results of <strong>Riverside</strong> so as to make it appear as if there is a <strong>low</strong> success rate without lying.,all|some|wrong,5,In this exam,of the students got,of the questions,.,Wed Jan 29 2020 22:08:25 GMT+0000 (GMT Standard Time),1580335705674,0|0|1|0|1|0|0|1|0|1|0|1|1|0|0|0|0|1|0|1|0|0|0|1|0|0|1|0|0|0|0|0|1|0|1|0|0|0|0|0|1|1|1|1|0|1|0|0|0|1|0|0|0|0|0|0|1|1|0|0,8.389866666666666,main_trials,5
11647,,24393,38,0.6,all|most|many|some|few|none,all|most|many|some|few|none,right|wrong,12,,high,placeholder,Higher Degree,1580336209066,placeholder,82,male,English,5c3c753320c87d0001d902f7,Describe these results of <strong>Green Valley</strong> so as to make it appear as if there is a <strong>high</strong> success rate without lying.,all|many|right,5,In this exam,of the students got,of the questions,.,Wed Jan 29 2020 22:08:25 GMT+0000 (GMT Standard Time),1580335705674,0|0|1|0|0|1|1|0|1|1|1|1|0|1|0|0|0|1|0|1|1|1|1|0|1|1|1|1|0|0|1|1|1|0|0|1|0|0|0|1|1|1|1|0|1|1|0|1|0|0|0|1|0|0|0|1|1|0|1|0,8.389866666666666,main_trials,6
11647,,22676,38,0.4,all|most|many|some|few|none,all|most|many|some|few|none,right|wrong,12,,high,placeholder,Higher Degree,1580336209066,placeholder,82,male,English,5c3c753320c87d0001d902f7,Describe these results of <strong>Green Valley</strong> so as to make it appear as if there is a <strong>high</strong> success rate without lying.,all|many|right,5,In this exam,of the students got,of the questions,.,Wed Jan 29 2020 22:08:25 GMT+0000 (GMT Standard Time),1580335705674,1|1|0|0|0|0|1|0|0|0|0|0|0|1|1|0|0|0|0|1|0|1|1|0|1|1|1|0|1|0|0|1|1|1|1|1|0|1|0|1|0|0|1|1|1|1|1|1|1|1|0|1|1|1|0|0|1|0|1|1,8.389866666666666,main_trials,7
11647,,15057,38,0.5,all|most|many|some|few|none,all|most|many|some|few|none,right|wrong,12,,high,placeholder,Higher Degree,1580336209066,placeholder,82,male,English,5c3c753320c87d0001d902f7,Describe these results of <strong>Green Valley</strong> so as to make it appear as if there is a <strong>high</strong> success rate without lying.,all|most|right,5,In this exam,of the students got,of the questions,.,Wed Jan 29 2020 22:08:25 GMT+0000 (GMT Standard Time),1580335705674,1|0|0|0|1|0|1|0|1|1|1|0|0|1|0|0|0|0|0|1|1|0|0|1|1|0|0|0|1|1|1|0|0|0|1|0|1|1|1|0|1|1|0|1|0|0|1|1|0|1|0|0|1|1|0|0|1|0|1|1,8.389866666666666,main_trials,8
11647,,21062,38,0.3,all|most|many|some|few|none,all|most|many|some|few|none,right|wrong,12,,high,placeholder,Higher Degree,1580336209066,placeholder,82,male,English,5c3c753320c87d0001d902f7,Describe these results of <strong>Green Valley</strong> so as to make it appear as if there is a <strong>high</strong> success rate without lying.,all|some|right,5,In this exam,of the students got,of the questions,.,Wed Jan 29 2020 22:08:25 GMT+0000 (GMT Standard Time),1580335705674,1|0|1|1|1|1|0|1|1|1|1|1|1|1|1|0|1|1|1|1|1|1|1|1|1|1|0|1|1|1|1|1|0|1|1|1|1|1|0|1|1|0|0|0|1|1|1|0|1|1|1|0|1|1|1|1|1|1|0|1,8.389866666666666,main_trials,9
11647,,20619,38,0.8,all|most|many|some|few|none,all|most|many|some|few|none,right|wrong,12,,low,placeholder,Higher Degree,1580336209066,placeholder,82,male,English,5c3c753320c87d0001d902f7,Describe these results of <strong>Riverside</strong> so as to make it appear as if there is a <strong>low</strong> success rate without lying.,all|some|wrong,5,In this exam,of the students got,of the questions,.,Wed Jan 29 2020 22:08:25 GMT+0000 (GMT Standard Time),1580335705674,0|0|1|0|0|0|0|1|0|0|0|0|0|0|1|0|0|0|0|0|1|0|0|0|0|0|0|0|0|0|0|0|0|0|0|0|0|0|1|0|0|0|0|1|0|0|0|0|0|0|1|1|0|0|0|0|0|1|0|0,8.389866666666666,main_trials,10
11647,,19058,38,0.7,all|most|many|some|few|none,all|most|many|some|few|none,right|wrong,12,,high,placeholder,Higher Degree,1580336209066,placeholder,82,male,English,5c3c753320c87d0001d902f7,Describe these results of <strong>Green Valley</strong> so as to make it appear as if there is a <strong>high</strong> success rate without lying.,most|most|right,5,In this exam,of the students got,of the questions,.,Wed Jan 29 2020 22:08:25 GMT+0000 (GMT Standard Time),1580335705674,1|0|0|0|0|0|1|0|0|0|0|0|1|1|1|0|1|1|1|1|1|0|0|0|0|0|1|1|1|1|0|0|0|0|0|0|0|0|0|1|0|1|1|0|0|1|1|1|1|0|1|1|0|0|1|0|0|0|0|0,8.389866666666666,main_trials,11
11647,,12762,38,0.8,all|most|many|some|few|none,all|most|many|some|few|none,right|wrong,12,,high,placeholder,Higher Degree,1580336209066,placeholder,82,male,English,5c3c753320c87d0001d902f7,Describe these results of <strong>Green Valley</strong> so as to make it appear as if there is a <strong>high</strong> success rate without lying.,all|most|right,5,In this exam,of the students got,of the questions,.,Wed Jan 29 2020 22:08:25 GMT+0000 (GMT Standard Time),1580335705674,0|1|0|0|0|0|0|0|0|1|1|0|0|0|0|1|0|0|0|0|0|0|0|0|0|1|0|1|0|0|0|0|1|0|1|0|0|0|0|0|0|0|0|0|1|0|0|1|0|0|0|0|0|0|0|0|0|0|1|0,8.389866666666666,main_trials,12
11647,,10754,38,0.2,all|most|many|some|few|none,all|most|many|some|few|none,right|wrong,12,,low,placeholder,Higher Degree,1580336209066,placeholder,82,male,English,5c3c753320c87d0001d902f7,Describe these results of <strong>Riverside</strong> so as to make it appear as if there is a <strong>low</strong> success rate without lying.,all|most|wrong,5,In this exam,of the students got,of the questions,.,Wed Jan 29 2020 22:08:25 GMT+0000 (GMT Standard Time),1580335705674,1|1|1|1|0|1|0|1|1|1|1|1|1|1|1|1|0|1|1|1|1|1|1|1|1|1|1|1|1|1|0|1|1|1|1|0|1|1|1|1|1|0|1|1|1|0|1|1|0|1|1|0|1|1|1|1|1|0|1|1,8.389866666666666,main_trials,13
11647,,16661,38,0.5,all|most|many|some|few|none,all|most|many|some|few|none,right|wrong,12,,low,placeholder,Higher Degree,1580336209066,placeholder,82,male,English,5c3c753320c87d0001d902f7,Describe these results of <strong>Riverside</strong> so as to make it appear as if there is a <strong>low</strong> success rate without lying.,all|many|wrong,5,In this exam,of the students got,of the questions,.,Wed Jan 29 2020 22:08:25 GMT+0000 (GMT Standard Time),1580335705674,0|1|0|1|1|0|0|0|1|0|0|1|0|1|1|1|0|0|0|1|1|0|0|1|1|0|1|1|1|1|1|1|1|0|0|1|0|1|0|1|1|0|1|1|0|0|0|1|1|1|1|1|0|1|0|0|1|0|1|0,8.389866666666666,main_trials,14
11648,,31267,23,0.9,all|most|many|some|few|none,all|most|many|some|few|none,right|wrong,12,,high,NA,Graduated College,1580336341588,NA,82,male,English,5a9ae74a6219a30001d349fe,Describe these results of <strong>Green Valley</strong> so as to make it appear as if there is a <strong>high</strong> success rate without lying.,all|most|right,5,In this exam,of the students got,of the questions,.,Wed Jan 29 2020 16:11:36 GMT-0600 (Central Standard Time),1580335896874,0|0|0|0|1|0|1|0|0|0|0|0|0|0|0|0|0|0|0|0|0|0|0|0|0|1|0|0|0|0|0|0|1|0|0|0|0|0|1|0|0|0|0|0|0|0|0|1|0|0|0|0|0|0|0|0|0|0|0|0,7.4119,training_trials,1
11648,,56152,23,0.2,all|most|many|some|few|none,all|most|many|some|few|none,right|wrong,12,,high,NA,Graduated College,1580336341588,NA,82,male,English,5a9ae74a6219a30001d349fe,Describe these results of <strong>Green Valley</strong> so as to make it appear as if there is a <strong>high</strong> success rate without lying.,none|all|wrong,5,In this exam,of the students got,of the questions,.,Wed Jan 29 2020 16:11:36 GMT-0600 (Central Standard Time),1580335896874,0|1|1|1|1|0|1|1|1|1|0|1|0|1|1|1|1|1|1|0|1|1|1|1|1|1|1|1|1|0|1|0|0|1|1|1|1|1|0|1|1|1|1|0|1|1|1|0|1|1|1|1|1|1|0|1|1|0|1|0,7.4119,training_trials,2
11648,,17831,23,0.5,all|most|many|some|few|none,all|most|many|some|few|none,right|wrong,12,,low,NA,Graduated College,1580336341588,NA,82,male,English,5a9ae74a6219a30001d349fe,Describe these results of <strong>Riverside</strong> so as to make it appear as if there is a <strong>low</strong> success rate without lying.,none|all|right,5,In this exam,of the students got,of the questions,.,Wed Jan 29 2020 16:11:36 GMT-0600 (Central Standard Time),1580335896874,0|0|0|0|0|0|1|1|1|0|1|1|1|1|0|1|1|1|1|0|1|0|0|1|0|0|0|0|0|1|1|0|0|1|1|0|1|1|0|1|1|0|0|1|0|0|0|1|0|1|1|0|1|0|1|0|1|0|1|0,7.4119,training_trials,3
11648,,29137,23,0.3,all|most|many|some|few|none,all|most|many|some|few|none,right|wrong,12,,low,placeholder,Graduated College,1580336341588,placeholder,82,male,English,5a9ae74a6219a30001d349fe,Describe these results of <strong>Riverside</strong> so as to make it appear as if there is a <strong>low</strong> success rate without lying.,none|all|right,5,In this exam,of the students got,of the questions,.,Wed Jan 29 2020 16:11:36 GMT-0600 (Central Standard Time),1580335896874,1|1|1|0|0|0|1|1|1|1|0|1|1|1|1|0|1|0|0|0|0|1|1|1|0|0|0|1|1|1|0|0|1|1|1|1|0|1|1|1|1|1|0|0|1|0|1|0|1|0|1|1|0|0|1|1|1|0|1|1,7.4119,main_trials,1
11648,,13089,23,0.7,all|most|many|some|few|none,all|most|many|some|few|none,right|wrong,12,,high,placeholder,Graduated College,1580336341588,placeholder,82,male,English,5a9ae74a6219a30001d349fe,Describe these results of <strong>Green Valley</strong> so as to make it appear as if there is a <strong>high</strong> success rate without lying.,all|many|right,5,In this exam,of the students got,of the questions,.,Wed Jan 29 2020 16:11:36 GMT-0600 (Central Standard Time),1580335896874,1|0|1|0|1|0|0|0|1|0|0|0|0|1|0|0|0|0|1|0|0|0|1|1|0|1|0|0|0|0|1|0|0|1|1|0|0|1|0|1|1|0|1|0|1|1|0|1|1|0|0|0|1|0|1|0|0|0|1|1,7.4119,main_trials,2
11648,,16148,23,0.6,all|most|many|some|few|none,all|most|many|some|few|none,right|wrong,12,,high,placeholder,Graduated College,1580336341588,placeholder,82,male,English,5a9ae74a6219a30001d349fe,Describe these results of <strong>Green Valley</strong> so as to make it appear as if there is a <strong>high</strong> success rate without lying.,many|most|right,5,In this exam,of the students got,of the questions,.,Wed Jan 29 2020 16:11:36 GMT-0600 (Central Standard Time),1580335896874,0|0|1|0|1|1|0|0|0|1|0|0|0|0|1|0|1|1|0|1|0|1|0|0|0|0|0|1|0|1|0|0|0|1|0|1|1|0|0|1|1|1|1|1|1|0|1|0|1|0|0|0|1|1|0|1|1|0|1|1,7.4119,main_trials,3
11648,,24475,23,0.3,all|most|many|some|few|none,all|most|many|some|few|none,right|wrong,12,,high,placeholder,Graduated College,1580336341588,placeholder,82,male,English,5a9ae74a6219a30001d349fe,Describe these results of <strong>Green Valley</strong> so as to make it appear as if there is a <strong>high</strong> success rate without lying.,none|none|right,5,In this exam,of the students got,of the questions,.,Wed Jan 29 2020 16:11:36 GMT-0600 (Central Standard Time),1580335896874,0|1|1|1|1|1|0|1|0|0|1|1|1|0|1|1|1|1|1|1|0|0|1|0|1|1|1|0|0|1|1|1|1|1|1|1|1|0|1|0|0|0|0|1|1|1|0|0|1|1|1|1|0|0|1|1|1|1|1|1,7.4119,main_trials,4
11648,,21221,23,0.5,all|most|many|some|few|none,all|most|many|some|few|none,right|wrong,12,,low,placeholder,Graduated College,1580336341588,placeholder,82,male,English,5a9ae74a6219a30001d349fe,Describe these results of <strong>Riverside</strong> so as to make it appear as if there is a <strong>low</strong> success rate without lying.,all|some|wrong,5,In this exam,of the students got,of the questions,.,Wed Jan 29 2020 16:11:36 GMT-0600 (Central Standard Time),1580335896874,0|1|1|1|1|0|0|1|1|0|1|0|0|0|1|1|0|0|0|0|1|0|1|0|0|0|0|1|1|1|1|0|0|0|1|1|0|1|0|0|1|0|1|0|0|1|1|1|1|0|0|0|1|0|1|0|0|1|0|0,7.4119,main_trials,5
11648,,9619,23,0.8,all|most|many|some|few|none,all|most|many|some|few|none,right|wrong,12,,high,placeholder,Graduated College,1580336341588,placeholder,82,male,English,5a9ae74a6219a30001d349fe,Describe these results of <strong>Green Valley</strong> so as to make it appear as if there is a <strong>high</strong> success rate without lying.,all|most|right,5,In this exam,of the students got,of the questions,.,Wed Jan 29 2020 16:11:36 GMT-0600 (Central Standard Time),1580335896874,0|0|0|0|1|0|0|0|0|0|0|1|0|0|0|0|1|1|0|1|0|0|0|0|0|0|0|1|0|1|0|0|1|0|0|0|0|0|0|0|1|1|0|1|0|0|0|0|1|0|0|1|1|0|0|1|0|0|0|0,7.4119,main_trials,6
11648,,31065,23,0.2,all|most|many|some|few|none,all|most|many|some|few|none,right|wrong,12,,high,placeholder,Graduated College,1580336341588,placeholder,82,male,English,5a9ae74a6219a30001d349fe,Describe these results of <strong>Green Valley</strong> so as to make it appear as if there is a <strong>high</strong> success rate without lying.,all|few|right,5,In this exam,of the students got,of the questions,.,Wed Jan 29 2020 16:11:36 GMT-0600 (Central Standard Time),1580335896874,1|0|1|1|1|0|1|1|1|1|1|1|1|1|1|1|1|1|0|1|1|1|1|0|0|1|1|1|1|1|1|0|1|1|1|1|1|1|0|1|1|1|1|1|1|1|1|1|1|1|1|1|0|1|1|1|1|1|1|1,7.4119,main_trials,7
11648,,11478,23,0.8,all|most|many|some|few|none,all|most|many|some|few|none,right|wrong,12,,low,placeholder,Graduated College,1580336341588,placeholder,82,male,English,5a9ae74a6219a30001d349fe,Describe these results of <strong>Riverside</strong> so as to make it appear as if there is a <strong>low</strong> success rate without lying.,all|most|right,5,In this exam,of the students got,of the questions,.,Wed Jan 29 2020 16:11:36 GMT-0600 (Central Standard Time),1580335896874,0|1|1|0|0|1|0|0|0|0|0|0|0|0|1|0|0|0|0|0|0|0|0|1|0|0|0|0|0|0|0|1|0|0|1|0|0|1|0|0|0|0|0|0|0|1|0|0|1|0|0|0|1|0|1|0|0|1|0|0,7.4119,main_trials,8
11648,,11822,23,0.5,all|most|many|some|few|none,all|most|many|some|few|none,right|wrong,12,,high,placeholder,Graduated College,1580336341588,placeholder,82,male,English,5a9ae74a6219a30001d349fe,Describe these results of <strong>Green Valley</strong> so as to make it appear as if there is a <strong>high</strong> success rate without lying.,some|most|right,5,In this exam,of the students got,of the questions,.,Wed Jan 29 2020 16:11:36 GMT-0600 (Central Standard Time),1580335896874,1|0|1|0|0|0|0|1|1|1|1|0|0|1|1|1|1|1|1|0|0|1|1|0|1|0|1|0|1|0|1|1|1|1|1|1|1|1|1|1|1|0|0|1|1|0|1|0|1|1|0|0|0|0|0|0|1|1|0|1,7.4119,main_trials,9
11648,,14435,23,0.4,all|most|many|some|few|none,all|most|many|some|few|none,right|wrong,12,,low,placeholder,Graduated College,1580336341588,placeholder,82,male,English,5a9ae74a6219a30001d349fe,Describe these results of <strong>Riverside</strong> so as to make it appear as if there is a <strong>low</strong> success rate without lying.,most|many|wrong,5,In this exam,of the students got,of the questions,.,Wed Jan 29 2020 16:11:36 GMT-0600 (Central Standard Time),1580335896874,0|1|0|0|0|0|1|0|1|1|1|1|0|1|0|1|0|1|1|1|0|0|1|1|0|0|1|1|0|0|1|0|0|0|1|0|0|1|1|1|0|0|1|1|1|1|1|1|0|1|0|1|1|0|1|1|0|1|1|0,7.4119,main_trials,10
11648,,23997,23,0.2,all|most|many|some|few|none,all|most|many|some|few|none,right|wrong,12,,low,placeholder,Graduated College,1580336341588,placeholder,82,male,English,5a9ae74a6219a30001d349fe,Describe these results of <strong>Riverside</strong> so as to make it appear as if there is a <strong>low</strong> success rate without lying.,most|few|right,5,In this exam,of the students got,of the questions,.,Wed Jan 29 2020 16:11:36 GMT-0600 (Central Standard Time),1580335896874,1|1|1|1|1|1|0|0|1|1|1|1|1|1|1|1|1|1|0|1|1|1|1|0|1|1|1|1|1|1|1|1|1|1|1|0|0|0|1|0|0|1|1|1|1|1|1|0|1|1|1|0|1|0|1|0|1|0|1|0,7.4119,main_trials,11
11648,,21998,23,0.7,all|most|many|some|few|none,all|most|many|some|few|none,right|wrong,12,,low,placeholder,Graduated College,1580336341588,placeholder,82,male,English,5a9ae74a6219a30001d349fe,Describe these results of <strong>Riverside</strong> so as to make it appear as if there is a <strong>low</strong> success rate without lying.,most|some|wrong,5,In this exam,of the students got,of the questions,.,Wed Jan 29 2020 16:11:36 GMT-0600 (Central Standard Time),1580335896874,0|0|0|0|0|0|0|1|0|0|1|0|0|0|0|0|0|0|0|1|0|0|0|0|1|1|0|1|1|0|0|1|0|0|0|0|0|0|0|1|0|1|0|1|0|0|0|0|0|0|0|0|1|1|0|0|0|0|0|1,7.4119,main_trials,12
11648,,12674,23,0.6,all|most|many|some|few|none,all|most|many|some|few|none,right|wrong,12,,low,placeholder,Graduated College,1580336341588,placeholder,82,male,English,5a9ae74a6219a30001d349fe,Describe these results of <strong>Riverside</strong> so as to make it appear as if there is a <strong>low</strong> success rate without lying.,many|some|wrong,5,In this exam,of the students got,of the questions,.,Wed Jan 29 2020 16:11:36 GMT-0600 (Central Standard Time),1580335896874,0|0|0|0|0|1|0|0|1|0|0|0|0|1|0|1|0|0|1|0|0|0|1|0|0|1|1|0|0|0|0|1|0|0|0|1|0|0|0|0|0|1|1|0|0|1|0|1|0|1|1|0|0|0|0|0|0|0|0|0,7.4119,main_trials,13
11648,,10314,23,0.4,all|most|many|some|few|none,all|most|many|some|few|none,right|wrong,12,,high,placeholder,Graduated College,1580336341588,placeholder,82,male,English,5a9ae74a6219a30001d349fe,Describe these results of <strong>Green Valley</strong> so as to make it appear as if there is a <strong>high</strong> success rate without lying.,some|many|right,5,In this exam,of the students got,of the questions,.,Wed Jan 29 2020 16:11:36 GMT-0600 (Central Standard Time),1580335896874,1|1|1|0|1|1|1|0|0|1|1|1|1|0|1|1|1|1|0|1|1|0|0|1|0|0|1|0|0|0|1|1|1|0|1|1|0|1|1|0|0|1|1|1|0|1|0|1|1|0|1|1|1|1|0|0|1|1|0|1,7.4119,main_trials,14
11646,,51530,20,0.5,all|most|many|some|few|none,all|most|many|some|few|none,right|wrong,12,,low,NA,Graduated High School,1580336114502,NA,82,female,English,5c761e74b80b460016bd0bd9,Describe these results of <strong>Riverside</strong> so as to make it appear as if there is a <strong>low</strong> success rate without lying.,many|most|wrong,5,In this exam,of the students got,of the questions,.,Wed Jan 29 2020 17:08:54 GMT-0500 (Eastern Standard Time),1580335734517,1|1|1|1|0|1|0|1|1|1|0|0|1|1|0|0|0|0|1|1|1|1|0|1|1|0|0|1|0|0|1|1|0|1|1|0|1|1|1|1|0|1|0|1|1|0|0|1|1|1|1|0|1|0|0|1|0|0|0|0,6.333083333333334,training_trials,1
11646,,26581,20,0.2,all|most|many|some|few|none,all|most|many|some|few|none,right|wrong,12,,high,NA,Graduated High School,1580336114502,NA,82,female,English,5c761e74b80b460016bd0bd9,Describe these results of <strong>Green Valley</strong> so as to make it appear as if there is a <strong>high</strong> success rate without lying.,all|some|right,5,In this exam,of the students got,of the questions,.,Wed Jan 29 2020 17:08:54 GMT-0500 (Eastern Standard Time),1580335734517,1|1|1|1|1|1|1|1|1|0|1|1|1|1|1|1|1|1|1|1|0|0|1|1|1|0|1|1|1|1|1|1|0|1|1|1|1|1|1|1|1|1|1|1|1|1|0|1|1|1|1|0|1|1|1|1|1|1|1|0,6.333083333333334,training_trials,2
11646,,21097,20,0.9,all|most|many|some|few|none,all|most|many|some|few|none,right|wrong,12,,high,NA,Graduated High School,1580336114502,NA,82,female,English,5c761e74b80b460016bd0bd9,Describe these results of <strong>Green Valley</strong> so as to make it appear as if there is a <strong>high</strong> success rate without lying.,all|most|right,5,In this exam,of the students got,of the questions,.,Wed Jan 29 2020 17:08:54 GMT-0500 (Eastern Standard Time),1580335734517,0|0|0|0|1|0|0|0|0|0|0|0|0|0|0|0|0|0|0|0|0|0|0|0|0|0|0|0|0|0|0|0|1|0|0|0|0|0|0|0|0|0|0|0|0|0|0|0|0|0|0|0|0|0|0|0|0|1|0|0,6.333083333333334,training_trials,3
11646,,15755,20,0.8,all|most|many|some|few|none,all|most|many|some|few|none,right|wrong,12,,low,placeholder,Graduated High School,1580336114502,placeholder,82,female,English,5c761e74b80b460016bd0bd9,Describe these results of <strong>Riverside</strong> so as to make it appear as if there is a <strong>low</strong> success rate without lying.,all|some|wrong,5,In this exam,of the students got,of the questions,.,Wed Jan 29 2020 17:08:54 GMT-0500 (Eastern Standard Time),1580335734517,0|0|1|0|1|0|0|1|0|1|0|0|0|0|0|0|0|0|0|1|1|0|0|1|0|0|0|0|0|0|0|0|1|1|0|1|0|0|1|0|0|0|0|0|0|0|0|0|0|0|1|1|0|0|1|1|0|0|0|1,6.333083333333334,main_trials,1
11646,,14146,20,0.2,all|most|many|some|few|none,all|most|many|some|few|none,right|wrong,12,,low,placeholder,Graduated High School,1580336114502,placeholder,82,female,English,5c761e74b80b460016bd0bd9,Describe these results of <strong>Riverside</strong> so as to make it appear as if there is a <strong>low</strong> success rate without lying.,most|most|wrong,5,In this exam,of the students got,of the questions,.,Wed Jan 29 2020 17:08:54 GMT-0500 (Eastern Standard Time),1580335734517,1|1|1|1|1|1|1|1|1|1|1|1|1|0|1|0|0|1|0|1|1|1|1|1|0|1|0|1|1|1|1|1|0|1|1|1|1|1|1|1|0|1|1|1|0|1|1|1|1|0|1|1|1|1|1|1|1|1|1|0,6.333083333333334,main_trials,2
11646,,19249,20,0.3,all|most|many|some|few|none,all|most|many|some|few|none,right|wrong,12,,high,placeholder,Graduated High School,1580336114502,placeholder,82,female,English,5c761e74b80b460016bd0bd9,Describe these results of <strong>Green Valley</strong> so as to make it appear as if there is a <strong>high</strong> success rate without lying.,most|many|right,5,In this exam,of the students got,of the questions,.,Wed Jan 29 2020 17:08:54 GMT-0500 (Eastern Standard Time),1580335734517,0|1|1|1|1|0|1|1|0|1|1|1|0|1|1|0|1|1|1|1|1|1|1|1|1|1|1|1|0|0|0|1|0|1|1|1|0|0|1|1|1|1|1|0|0|0|0|0|0|1|0|0|0|0|1|0|0|0|1|0,6.333083333333334,main_trials,3
11646,,15231,20,0.7,all|most|many|some|few|none,all|most|many|some|few|none,right|wrong,12,,low,placeholder,Graduated High School,1580336114502,placeholder,82,female,English,5c761e74b80b460016bd0bd9,Describe these results of <strong>Riverside</strong> so as to make it appear as if there is a <strong>low</strong> success rate without lying.,all|many|wrong,5,In this exam,of the students got,of the questions,.,Wed Jan 29 2020 17:08:54 GMT-0500 (Eastern Standard Time),1580335734517,0|0|0|1|0|1|1|1|0|0|0|0|0|0|1|0|0|0|0|0|0|1|1|0|0|0|0|0|0|0|0|1|1|1|0|1|0|1|0|1|0|0|0|1|0|1|0|0|0|0|1|0|1|1|0|0|0|0|0|1,6.333083333333334,main_trials,4
11646,,8981,20,0.4,all|most|many|some|few|none,all|most|many|some|few|none,right|wrong,12,,low,placeholder,Graduated High School,1580336114502,placeholder,82,female,English,5c761e74b80b460016bd0bd9,Describe these results of <strong>Riverside</strong> so as to make it appear as if there is a <strong>low</strong> success rate without lying.,most|most|wrong,5,In this exam,of the students got,of the questions,.,Wed Jan 29 2020 17:08:54 GMT-0500 (Eastern Standard Time),1580335734517,1|0|1|1|0|0|1|0|1|1|0|1|0|1|1|1|1|0|1|1|1|0|1|1|0|1|1|1|0|1|1|0|0|0|1|1|0|0|1|1|1|1|1|0|0|1|1|0|0|1|0|1|1|0|0|0|0|1|1|1,6.333083333333334,main_trials,5
11646,,15602,20,0.5,all|most|many|some|few|none,all|most|many|some|few|none,right|wrong,12,,low,placeholder,Graduated High School,1580336114502,placeholder,82,female,English,5c761e74b80b460016bd0bd9,Describe these results of <strong>Riverside</strong> so as to make it appear as if there is a <strong>low</strong> success rate without lying.,many|many|wrong,5,In this exam,of the students got,of the questions,.,Wed Jan 29 2020 17:08:54 GMT-0500 (Eastern Standard Time),1580335734517,0|1|0|0|0|0|0|0|1|0|0|0|1|0|1|0|1|0|1|1|0|0|0|0|1|1|1|1|1|1|1|1|1|1|0|1|0|0|0|1|0|0|0|1|0|0|0|1|0|1|1|0|0|0|0|1|1|1|1|1,6.333083333333334,main_trials,6
11646,,13523,20,0.3,all|most|many|some|few|none,all|most|many|some|few|none,right|wrong,12,,low,placeholder,Graduated High School,1580336114502,placeholder,82,female,English,5c761e74b80b460016bd0bd9,Describe these results of <strong>Riverside</strong> so as to make it appear as if there is a <strong>low</strong> success rate without lying.,many|most|wrong,5,In this exam,of the students got,of the questions,.,Wed Jan 29 2020 17:08:54 GMT-0500 (Eastern Standard Time),1580335734517,0|1|1|1|0|1|1|1|0|0|1|1|0|1|1|1|0|1|0|1|0|0|1|1|1|1|1|1|1|1|1|0|1|1|1|1|0|0|0|1|1|0|1|1|1|1|1|1|0|1|1|0|0|0|1|1|0|0|1|0,6.333083333333334,main_trials,7
11646,,21084,20,0.2,all|most|many|some|few|none,all|most|many|some|few|none,right|wrong,12,,high,placeholder,Graduated High School,1580336114502,placeholder,82,female,English,5c761e74b80b460016bd0bd9,Describe these results of <strong>Green Valley</strong> so as to make it appear as if there is a <strong>high</strong> success rate without lying.,most|some|right,5,In this exam,of the students got,of the questions,.,Wed Jan 29 2020 17:08:54 GMT-0500 (Eastern Standard Time),1580335734517,0|1|1|1|1|0|1|0|1|0|1|1|1|1|1|1|1|0|1|0|0|1|1|1|1|1|1|1|0|1|0|1|0|1|1|1|1|0|1|1|1|1|1|1|1|1|0|1|1|1|1|1|1|1|1|1|1|1|1|1,6.333083333333334,main_trials,8
11646,,11060,20,0.5,all|most|many|some|few|none,all|most|many|some|few|none,right|wrong,12,,high,placeholder,Graduated High School,1580336114502,placeholder,82,female,English,5c761e74b80b460016bd0bd9,Describe these results of <strong>Green Valley</strong> so as to make it appear as if there is a <strong>high</strong> success rate without lying.,many|many|right,5,In this exam,of the students got,of the questions,.,Wed Jan 29 2020 17:08:54 GMT-0500 (Eastern Standard Time),1580335734517,0|0|0|1|1|1|0|0|0|0|1|0|0|0|0|0|1|1|1|0|0|0|0|0|1|1|0|1|0|0|1|1|1|1|0|1|0|0|1|1|1|1|0|0|0|1|1|0|0|1|0|1|1|1|1|1|1|0|0|1,6.333083333333334,main_trials,9
11646,,15215,20,0.6,all|most|many|some|few|none,all|most|many|some|few|none,right|wrong,12,,low,placeholder,Graduated High School,1580336114502,placeholder,82,female,English,5c761e74b80b460016bd0bd9,Describe these results of <strong>Riverside</strong> so as to make it appear as if there is a <strong>low</strong> success rate without lying.,all|some|wrong,5,In this exam,of the students got,of the questions,.,Wed Jan 29 2020 17:08:54 GMT-0500 (Eastern Standard Time),1580335734517,1|0|1|1|1|0|0|0|1|0|0|0|0|0|0|0|0|0|1|0|1|0|0|1|1|1|0|0|1|1|1|0|1|1|0|0|0|0|0|0|0|0|0|1|0|1|0|0|0|0|0|1|1|0|0|0|1|1|1|1,6.333083333333334,main_trials,10
11646,,10546,20,0.7,all|most|many|some|few|none,all|most|many|some|few|none,right|wrong,12,,high,placeholder,Graduated High School,1580336114502,placeholder,82,female,English,5c761e74b80b460016bd0bd9,Describe these results of <strong>Green Valley</strong> so as to make it appear as if there is a <strong>high</strong> success rate without lying.,most|most|right,5,In this exam,of the students got,of the questions,.,Wed Jan 29 2020 17:08:54 GMT-0500 (Eastern Standard Time),1580335734517,1|1|1|1|0|0|0|1|0|0|0|1|0|0|0|0|0|0|0|0|0|1|0|0|0|1|0|0|0|0|0|1|0|0|0|0|1|0|1|0|0|0|0|1|0|0|0|1|0|0|0|0|0|0|0|1|1|1|1|0,6.333083333333334,main_trials,11
11646,,10504,20,0.6,all|most|many|some|few|none,all|most|many|some|few|none,right|wrong,12,,high,placeholder,Graduated High School,1580336114502,placeholder,82,female,English,5c761e74b80b460016bd0bd9,Describe these results of <strong>Green Valley</strong> so as to make it appear as if there is a <strong>high</strong> success rate without lying.,most|most|right,5,In this exam,of the students got,of the questions,.,Wed Jan 29 2020 17:08:54 GMT-0500 (Eastern Standard Time),1580335734517,0|0|0|0|1|0|1|0|0|1|0|0|1|1|1|0|1|0|0|0|0|1|0|0|1|0|0|1|1|0|1|0|0|1|0|0|1|0|0|0|0|0|0|0|1|1|1|1|1|0|0|0|1|0|0|1|0|0|1|1,6.333083333333334,main_trials,12
11646,,16887,20,0.4,all|most|many|some|few|none,all|most|many|some|few|none,right|wrong,12,,high,placeholder,Graduated High School,1580336114502,placeholder,82,female,English,5c761e74b80b460016bd0bd9,Describe these results of <strong>Green Valley</strong> so as to make it appear as if there is a <strong>high</strong> success rate without lying.,many|most|right,5,In this exam,of the students got,of the questions,.,Wed Jan 29 2020 17:08:54 GMT-0500 (Eastern Standard Time),1580335734517,0|0|1|0|0|1|0|0|0|1|0|1|1|0|0|0|0|0|1|1|1|1|0|0|0|1|0|1|1|1|1|0|0|1|1|0|0|1|1|1|1|1|1|0|1|1|1|1|1|1|1|0|1|0|0|1|1|1|0|1,6.333083333333334,main_trials,13
11646,,15860,20,0.8,all|most|many|some|few|none,all|most|many|some|few|none,right|wrong,12,,high,placeholder,Graduated High School,1580336114502,placeholder,82,female,English,5c761e74b80b460016bd0bd9,Describe these results of <strong>Green Valley</strong> so as to make it appear as if there is a <strong>high</strong> success rate without lying.,all|most|right,5,In this exam,of the students got,of the questions,.,Wed Jan 29 2020 17:08:54 GMT-0500 (Eastern Standard Time),1580335734517,0|0|1|0|0|0|0|0|0|0|0|0|0|0|0|0|0|0|0|0|0|1|0|0|1|0|0|0|0|0|0|0|0|1|0|0|0|0|1|1|1|0|0|1|0|1|0|0|0|0|0|0|0|0|0|0|0|0|0|0,6.333083333333334,main_trials,14
11654,,32863,21,0.2,all|most|many|some|few|none,all|most|many|some|few|none,right|wrong,12,Thanks for the mini test! I enjoyed it ! Thanks have a great day!,high,NA,Graduated High School,1580337367074,NA,82,male,,5d12438803b9c6001797854e,Describe these results of <strong>Green Valley</strong> so as to make it appear as if there is a <strong>high</strong> success rate without lying.,few|some|right,5,In this exam,of the students got,of the questions,.,Wed Jan 29 2020 16:12:06 GMT-0600 (Central Standard Time),1580335926711,1|1|1|1|1|1|1|1|1|1|1|1|1|1|1|1|1|1|1|1|0|0|1|1|1|1|1|1|1|1|0|0|1|1|1|0|0|1|1|1|1|1|1|1|1|1|1|1|1|1|1|0|1|1|1|1|0|1|1|1,24.00605,training_trials,1
11654,,21438,21,0.9,all|most|many|some|few|none,all|most|many|some|few|none,right|wrong,12,Thanks for the mini test! I enjoyed it ! Thanks have a great day!,high,NA,Graduated High School,1580337367074,NA,82,male,,5d12438803b9c6001797854e,Describe these results of <strong>Green Valley</strong> so as to make it appear as if there is a <strong>high</strong> success rate without lying.,most|few|wrong,5,In this exam,of the students got,of the questions,.,Wed Jan 29 2020 16:12:06 GMT-0600 (Central Standard Time),1580335926711,0|0|0|0|0|0|0|0|0|1|1|0|0|0|0|0|0|0|0|0|0|1|0|0|0|0|0|0|0|0|0|0|1|0|0|0|0|0|1|1|0|0|0|0|0|0|0|0|0|1|0|0|0|0|1|0|0|0|0|0,24.00605,training_trials,2
11654,,13919,21,0.5,all|most|many|some|few|none,all|most|many|some|few|none,right|wrong,12,Thanks for the mini test! I enjoyed it ! Thanks have a great day!,low,NA,Graduated High School,1580337367074,NA,82,male,,5d12438803b9c6001797854e,Describe these results of <strong>Riverside</strong> so as to make it appear as if there is a <strong>low</strong> success rate without lying.,all|most|right,5,In this exam,of the students got,of the questions,.,Wed Jan 29 2020 16:12:06 GMT-0600 (Central Standard Time),1580335926711,1|1|1|1|1|0|1|0|1|1|1|0|0|0|0|0|0|0|1|0|0|1|0|0|1|0|0|1|0|0|1|0|0|0|0|1|0|0|0|0|1|0|0|1|1|0|1|0|0|0|1|1|1|1|1|0|1|0|0|1,24.00605,training_trials,3
11654,,18335,21,0.5,all|most|many|some|few|none,all|most|many|some|few|none,right|wrong,12,Thanks for the mini test! I enjoyed it ! Thanks have a great day!,low,placeholder,Graduated High School,1580337367074,placeholder,82,male,,5d12438803b9c6001797854e,Describe these results of <strong>Riverside</strong> so as to make it appear as if there is a <strong>low</strong> success rate without lying.,most|some|wrong,5,In this exam,of the students got,of the questions,.,Wed Jan 29 2020 16:12:06 GMT-0600 (Central Standard Time),1580335926711,0|0|1|1|1|1|0|1|1|0|0|0|0|1|1|1|1|0|0|1|1|1|0|1|0|1|1|1|1|1|1|0|1|1|1|0|1|1|1|1|1|0|1|0|0|1|0|1|1|0|1|0|1|0|0|0|0|0|1|0,24.00605,main_trials,1
11654,,19039,21,0.2,all|most|many|some|few|none,all|most|many|some|few|none,right|wrong,12,Thanks for the mini test! I enjoyed it ! Thanks have a great day!,low,placeholder,Graduated High School,1580337367074,placeholder,82,male,,5d12438803b9c6001797854e,Describe these results of <strong>Riverside</strong> so as to make it appear as if there is a <strong>low</strong> success rate without lying.,all|some|right,5,In this exam,of the students got,of the questions,.,Wed Jan 29 2020 16:12:06 GMT-0600 (Central Standard Time),1580335926711,1|1|0|1|1|1|1|1|1|1|1|1|1|1|1|1|1|1|1|1|1|1|1|1|1|1|1|1|0|0|0|1|0|1|1|1|1|1|1|0|1|1|1|1|1|1|1|1|1|1|1|1|1|0|1|1|0|1|1|1,24.00605,main_trials,2
11654,,11817,21,0.4,all|most|many|some|few|none,all|most|many|some|few|none,right|wrong,12,Thanks for the mini test! I enjoyed it ! Thanks have a great day!,low,placeholder,Graduated High School,1580337367074,placeholder,82,male,,5d12438803b9c6001797854e,Describe these results of <strong>Riverside</strong> so as to make it appear as if there is a <strong>low</strong> success rate without lying.,all|most|right,5,In this exam,of the students got,of the questions,.,Wed Jan 29 2020 16:12:06 GMT-0600 (Central Standard Time),1580335926711,0|0|1|0|1|1|1|1|0|1|1|1|1|1|0|0|0|0|0|1|1|0|0|0|1|0|1|1|0|1|0|1|1|0|0|0|1|1|0|1|0|1|1|1|0|1|1|1|1|1|1|0|1|0|1|0|1|1|0|1,24.00605,main_trials,3
11654,,4813,21,0.7,all|most|many|some|few|none,all|most|many|some|few|none,right|wrong,12,Thanks for the mini test! I enjoyed it ! Thanks have a great day!,low,placeholder,Graduated High School,1580337367074,placeholder,82,male,,5d12438803b9c6001797854e,Describe these results of <strong>Riverside</strong> so as to make it appear as if there is a <strong>low</strong> success rate without lying.,most|most|right,5,In this exam,of the students got,of the questions,.,Wed Jan 29 2020 16:12:06 GMT-0600 (Central Standard Time),1580335926711,0|0|0|0|0|0|0|0|0|1|0|1|1|0|0|0|0|0|1|0|1|1|1|0|0|0|0|1|1|0|1|0|0|0|0|1|0|0|1|0|1|0|0|0|0|1|0|0|1|1|0|1|0|0|0|1|0|1|0|1,24.00605,main_trials,4
11654,,9718,21,0.8,all|most|many|some|few|none,all|most|many|some|few|none,right|wrong,12,Thanks for the mini test! I enjoyed it ! Thanks have a great day!,low,placeholder,Graduated High School,1580337367074,placeholder,82,male,,5d12438803b9c6001797854e,Describe these results of <strong>Riverside</strong> so as to make it appear as if there is a <strong>low</strong> success rate without lying.,most|most|right,5,In this exam,of the students got,of the questions,.,Wed Jan 29 2020 16:12:06 GMT-0600 (Central Standard Time),1580335926711,0|0|1|0|0|1|0|0|0|0|0|0|0|0|1|0|1|0|0|0|0|1|0|0|0|0|0|0|0|0|0|0|0|0|1|1|0|0|0|0|1|1|0|0|0|1|1|0|0|0|0|1|1|0|0|0|1|1|1|0,24.00605,main_trials,5
11654,,10934,21,0.2,all|most|many|some|few|none,all|most|many|some|few|none,right|wrong,12,Thanks for the mini test! I enjoyed it ! Thanks have a great day!,high,placeholder,Graduated High School,1580337367074,placeholder,82,male,,5d12438803b9c6001797854e,Describe these results of <strong>Green Valley</strong> so as to make it appear as if there is a <strong>high</strong> success rate without lying.,none|some|right,5,In this exam,of the students got,of the questions,.,Wed Jan 29 2020 16:12:06 GMT-0600 (Central Standard Time),1580335926711,0|1|1|1|0|1|1|1|1|0|0|1|1|1|1|1|1|1|0|1|1|0|1|1|1|1|1|1|1|1|1|1|0|0|1|1|1|0|1|1|1|1|1|1|1|1|1|1|0|1|1|1|1|1|1|1|1|1|0|1,24.00605,main_trials,6
11654,,51149,21,0.5,all|most|many|some|few|none,all|most|many|some|few|none,right|wrong,12,Thanks for the mini test! I enjoyed it ! Thanks have a great day!,high,placeholder,Graduated High School,1580337367074,placeholder,82,male,,5d12438803b9c6001797854e,Describe these results of <strong>Green Valley</strong> so as to make it appear as if there is a <strong>high</strong> success rate without lying.,many|most|right,5,In this exam,of the students got,of the questions,.,Wed Jan 29 2020 16:12:06 GMT-0600 (Central Standard Time),1580335926711,1|1|1|1|0|1|0|0|0|1|1|1|1|1|0|0|1|1|1|0|0|1|1|1|1|1|1|1|0|0|1|1|1|0|0|0|0|0|1|1|0|0|0|0|0|1|1|1|1|0|0|0|1|1|1|0|1|0|0|0,24.00605,main_trials,7
11654,,10575,21,0.7,all|most|many|some|few|none,all|most|many|some|few|none,right|wrong,12,Thanks for the mini test! I enjoyed it ! Thanks have a great day!,high,placeholder,Graduated High School,1580337367074,placeholder,82,male,,5d12438803b9c6001797854e,Describe these results of <strong>Green Valley</strong> so as to make it appear as if there is a <strong>high</strong> success rate without lying.,most|few|wrong,5,In this exam,of the students got,of the questions,.,Wed Jan 29 2020 16:12:06 GMT-0600 (Central Standard Time),1580335926711,0|0|0|0|0|0|1|0|0|0|0|0|0|0|0|0|1|1|1|1|0|1|0|1|1|0|0|0|0|0|0|0|0|0|0|1|0|1|1|0|0|1|0|0|0|0|0|0|0|0|0|0|1|0|0|0|0|0|0|0,24.00605,main_trials,8
11654,,30098,21,0.3,all|most|many|some|few|none,all|most|many|some|few|none,right|wrong,12,Thanks for the mini test! I enjoyed it ! Thanks have a great day!,high,placeholder,Graduated High School,1580337367074,placeholder,82,male,,5d12438803b9c6001797854e,Describe these results of <strong>Green Valley</strong> so as to make it appear as if there is a <strong>high</strong> success rate without lying.,some|most|right,5,In this exam,of the students got,of the questions,.,Wed Jan 29 2020 16:12:06 GMT-0600 (Central Standard Time),1580335926711,0|0|0|1|0|1|1|1|1|1|0|1|0|1|1|1|1|1|0|0|1|0|1|0|1|1|1|1|1|1|1|0|1|0|1|1|0|0|0|1|1|1|1|1|0|1|1|1|1|1|1|1|1|1|1|1|1|1|1|1,24.00605,main_trials,9
11654,,81071,21,0.4,all|most|many|some|few|none,all|most|many|some|few|none,right|wrong,12,Thanks for the mini test! I enjoyed it ! Thanks have a great day!,high,placeholder,Graduated High School,1580337367074,placeholder,82,male,,5d12438803b9c6001797854e,Describe these results of <strong>Green Valley</strong> so as to make it appear as if there is a <strong>high</strong> success rate without lying.,few|some|right,5,In this exam,of the students got,of the questions,.,Wed Jan 29 2020 16:12:06 GMT-0600 (Central Standard Time),1580335926711,1|1|0|1|0|0|0|1|1|0|1|1|1|1|1|1|0|0|1|1|1|1|0|1|1|1|1|1|0|1|1|1|0|1|1|0|0|1|1|0|0|0|0|0|0|0|1|1|1|0|1|1|0|0|0|1|1|0|1|1,24.00605,main_trials,10
11654,,8030,21,0.3,all|most|many|some|few|none,all|most|many|some|few|none,right|wrong,12,Thanks for the mini test! I enjoyed it ! Thanks have a great day!,low,placeholder,Graduated High School,1580337367074,placeholder,82,male,,5d12438803b9c6001797854e,Describe these results of <strong>Riverside</strong> so as to make it appear as if there is a <strong>low</strong> success rate without lying.,all|some|wrong,5,In this exam,of the students got,of the questions,.,Wed Jan 29 2020 16:12:06 GMT-0600 (Central Standard Time),1580335926711,1|1|1|1|1|0|1|1|0|1|0|1|0|0|1|1|1|0|0|1|0|1|1|1|1|1|1|1|1|1|0|1|1|0|1|0|1|1|1|0|1|1|1|0|1|1|1|1|0|1|1|1|1|0|1|1|0|1|1|1,24.00605,main_trials,11
11654,,6414,21,0.8,all|most|many|some|few|none,all|most|many|some|few|none,right|wrong,12,Thanks for the mini test! I enjoyed it ! Thanks have a great day!,high,placeholder,Graduated High School,1580337367074,placeholder,82,male,,5d12438803b9c6001797854e,Describe these results of <strong>Green Valley</strong> so as to make it appear as if there is a <strong>high</strong> success rate without lying.,all|most|right,5,In this exam,of the students got,of the questions,.,Wed Jan 29 2020 16:12:06 GMT-0600 (Central Standard Time),1580335926711,0|0|0|0|0|0|0|0|0|0|0|1|1|0|0|0|0|0|0|0|0|0|0|0|0|1|0|0|0|0|0|0|0|0|0|0|1|0|0|0|0|0|0|1|0|1|0|0|0|1|0|1|0|0|0|0|1|0|0|0,24.00605,main_trials,12
11654,,415445,21,0.6,all|most|many|some|few|none,all|most|many|some|few|none,right|wrong,12,Thanks for the mini test! I enjoyed it ! Thanks have a great day!,high,placeholder,Graduated High School,1580337367074,placeholder,82,male,,5d12438803b9c6001797854e,Describe these results of <strong>Green Valley</strong> so as to make it appear as if there is a <strong>high</strong> success rate without lying.,most|many|right,5,In this exam,of the students got,of the questions,.,Wed Jan 29 2020 16:12:06 GMT-0600 (Central Standard Time),1580335926711,0|0|1|0|1|0|1|0|1|0|0|0|0|0|0|1|0|1|0|0|0|0|0|0|0|1|0|0|0|0|0|1|0|0|1|0|0|0|1|0|0|0|0|0|1|1|0|0|1|0|1|0|0|1|0|1|0|0|0|0,24.00605,main_trials,13
11654,,3379,21,0.6,all|most|many|some|few|none,all|most|many|some|few|none,right|wrong,12,Thanks for the mini test! I enjoyed it ! Thanks have a great day!,low,placeholder,Graduated High School,1580337367074,placeholder,82,male,,5d12438803b9c6001797854e,Describe these results of <strong>Riverside</strong> so as to make it appear as if there is a <strong>low</strong> success rate without lying.,all|most|right,5,In this exam,of the students got,of the questions,.,Wed Jan 29 2020 16:12:06 GMT-0600 (Central Standard Time),1580335926711,0|1|0|0|1|0|0|0|1|0|1|1|0|0|0|0|0|0|0|0|1|0|0|0|0|1|0|0|1|1|0|0|1|0|1|0|0|1|0|1|0|0|1|0|0|1|1|1|0|0|1|0|0|0|0|0|1|1|1|1,24.00605,main_trials,14
11651,,87467,36,0.2,all|most|many|some|few|none,all|most|many|some|few|none,right|wrong,12,"Very interested study, it is interesting see how results can be manipulated to present them in a favourable or unfavourable light.",high,NA,Higher Degree,1580337139884,NA,82,female,English,5c6170988534ec00013bcb40,Describe these results of <strong>Green Valley</strong> so as to make it appear as if there is a <strong>high</strong> success rate without lying.,all|many|right,5,In this exam,of the students got,of the questions,.,Wed Jan 29 2020 22:19:53 GMT+0000 (GMT),1580336393189,1|1|1|1|1|1|1|0|1|1|1|1|1|0|1|1|0|1|1|1|0|1|1|0|1|0|1|0|1|0|1|1|1|0|1|1|1|1|1|0|1|1|1|1|1|0|1|0|1|1|0|1|1|0|1|1|1|1|1|1,12.444916666666666,training_trials,1
11651,,31760,36,0.5,all|most|many|some|few|none,all|most|many|some|few|none,right|wrong,12,"Very interested study, it is interesting see how results can be manipulated to present them in a favourable or unfavourable light.",low,NA,Higher Degree,1580337139884,NA,82,female,English,5c6170988534ec00013bcb40,Describe these results of <strong>Riverside</strong> so as to make it appear as if there is a <strong>low</strong> success rate without lying.,all|some|wrong,5,In this exam,of the students got,of the questions,.,Wed Jan 29 2020 22:19:53 GMT+0000 (GMT),1580336393189,1|1|1|1|1|1|1|1|1|0|1|1|0|0|0|0|0|1|1|1|1|1|1|0|1|1|0|0|0|0|0|1|0|1|1|1|1|0|0|0|0|1|1|0|1|1|1|1|0|1|1|0|1|0|0|1|1|1|1|1,12.444916666666666,training_trials,2
