submission_id,QUD,RT,age,choice_options_1,choice_options_2,choice_options_3,column_number,comments,condition,correct,education,endTime,expected,experiment_id,gender,languages,prolific_id,question,response,row_number,sentence_chunk_1,sentence_chunk_2,sentence_chunk_3,sentence_chunk_4,situation,situation_number,startDate,startTime,stimulus,timeSpent,trial_name,trial_number
11533,,18265,18,all|most|some|none,all|most|some|none,right|wrong,5,,high,placeholder,Graduated High School,1579882224176,placeholder,80,female,English,5db6e588867c22000dfffa54,Describe these results of <strong>Green Valley</strong> so as to make it appear as if there is a <strong>high</strong> success rate without lying.,Almost half of the students received a full score.,12|12|3|0|0,In this exam,of the students got,of the questions,.,"%{""instances"" => [%{""n_col"" => 12, ""rows"" => [12, 12, 3, 0, 0]}], ""number"" => 1, ""sequence"" => [""ACCCD"", ""ACCDD"", ""AACDD"", ""AACCD"", ""ABCDD"", ""ABCCD""], ""truth_table"" => []}",1,Fri Jan 24 2020 11:05:03 GMT-0500 (EST),1579881903197,1|1|1|1|1|1|1|1|1|1|1|1|1|1|1|1|1|1|1|1|1|1|1|1|1|1|1|0|0|0|0|0|0|0|0|0|0|0|0|0|0|0|0|0|0|0|0|0|0|0|0|0|0|0|0|0|0|0|0|0,5.34965,main_trials,1
11533,,36716,18,all|most|some|none,all|most|some|none,right|wrong,5,,high,placeholder,Graduated High School,1579882224176,placeholder,80,female,English,5db6e588867c22000dfffa54,Describe these results of <strong>Green Valley</strong> so as to make it appear as if there is a <strong>high</strong> success rate without lying.,Most of the students got most of the questions right.,12|12|9|3|3,In this exam,of the students got,of the questions,.,"%{""instances"" => [%{""n_col"" => 12, ""rows"" => [12, 12, 9, 3, 3]}], ""number"" => 15, ""sequence"" => [""ABBBC"", ""ABBCC"", ""AABCC"", ""AABBC""], ""truth_table"" => []}",15,Fri Jan 24 2020 11:05:03 GMT-0500 (EST),1579881903197,1|1|1|1|1|1|1|1|1|1|1|1|1|1|1|1|1|1|1|1|1|1|1|1|1|1|1|1|1|1|1|1|1|0|0|0|1|1|1|0|0|0|0|0|0|0|0|0|1|1|1|0|0|0|0|0|0|0|0|0,5.34965,main_trials,2
11533,,19738,18,all|most|some|none,all|most|some|none,right|wrong,5,,high,placeholder,Graduated High School,1579882224176,placeholder,80,female,English,5db6e588867c22000dfffa54,Describe these results of <strong>Green Valley</strong> so as to make it appear as if there is a <strong>high</strong> success rate without lying.,60% of students received a score of 3 or higher,3|3|3|0|0,In this exam,of the students got,of the questions,.,"%{""instances"" => [%{""n_col"" => 12, ""rows"" => [3, 3, 3, 0, 0]}], ""number"" => 5, ""sequence"" => [""CCCDD"", ""CCCCD""], ""truth_table"" => []}",5,Fri Jan 24 2020 11:05:03 GMT-0500 (EST),1579881903197,1|1|1|0|0|0|0|0|0|0|0|0|1|1|1|0|0|0|0|0|0|0|0|0|1|1|1|0|0|0|0|0|0|0|0|0|0|0|0|0|0|0|0|0|0|0|0|0|0|0|0|0|0|0|0|0|0|0|0|0,5.34965,main_trials,3
11533,,35211,18,all|most|some|none,all|most|some|none,right|wrong,5,,high,placeholder,Graduated High School,1579882224176,placeholder,80,female,English,5db6e588867c22000dfffa54,Describe these results of <strong>Green Valley</strong> so as to make it appear as if there is a <strong>high</strong> success rate without lying.,The majority of the students received a score of 8/12 or higher,12|12|9|0|0,In this exam,of the students got,of the questions,.,"%{""instances"" => [%{""n_col"" => 12, ""rows"" => [12, 12, 9, 0, 0]}], ""number"" => 8, ""sequence"" => [""ABBBD"", ""ABBDD"", ""AABDD"", ""ABBBD"", ""ABBCD"", ""AABCD""], ""truth_table"" => []}",8,Fri Jan 24 2020 11:05:03 GMT-0500 (EST),1579881903197,1|1|1|1|1|1|1|1|1|1|1|1|1|1|1|1|1|1|1|1|1|1|1|1|1|1|1|1|1|1|1|1|1|0|0|0|0|0|0|0|0|0|0|0|0|0|0|0|0|0|0|0|0|0|0|0|0|0|0|0,5.34965,main_trials,4
11533,,13634,18,all|most|some|none,all|most|some|none,right|wrong,5,,low,placeholder,Graduated High School,1579882224176,placeholder,80,female,English,5db6e588867c22000dfffa54,Describe these results of <strong>Riverside</strong> so as to make it appear as if there is a <strong>low</strong> success rate without lying.,None of the students received a full score,9|9|9|9|9,In this exam,of the students got,of the questions,.,"%{""instances"" => [%{""n_col"" => 12, ""rows"" => '\t\t\t\t\t'}], ""number"" => 17, ""sequence"" => [""BBBBB""], ""truth_table"" => []}",17,Fri Jan 24 2020 11:05:03 GMT-0500 (EST),1579881903197,1|1|1|1|1|1|1|1|1|0|0|0|1|1|1|1|1|1|1|1|1|0|0|0|1|1|1|1|1|1|1|1|1|0|0|0|1|1|1|1|1|1|1|1|1|0|0|0|1|1|1|1|1|1|1|1|1|0|0|0,5.34965,main_trials,5
11533,,19992,18,all|most|some|none,all|most|some|none,right|wrong,5,,low,placeholder,Graduated High School,1579882224176,placeholder,80,female,English,5db6e588867c22000dfffa54,Describe these results of <strong>Riverside</strong> so as to make it appear as if there is a <strong>low</strong> success rate without lying.,The majority of the students got no questions right.,9|9|0|0|0,In this exam,of the students got,of the questions,.,"%{""instances"" => [%{""n_col"" => 12, ""rows"" => [9, 9, 0, 0, 0]}], ""number"" => 3, ""sequence"" => [""BDDDD"", ""BBDDD"", ""BCDDD""], ""truth_table"" => []}",3,Fri Jan 24 2020 11:05:03 GMT-0500 (EST),1579881903197,1|1|1|1|1|1|1|1|1|0|0|0|1|1|1|1|1|1|1|1|1|0|0|0|0|0|0|0|0|0|0|0|0|0|0|0|0|0|0|0|0|0|0|0|0|0|0|0|0|0|0|0|0|0|0|0|0|0|0|0,5.34965,main_trials,6
11533,,18738,18,all|most|some|none,all|most|some|none,right|wrong,5,,high,placeholder,Graduated High School,1579882224176,placeholder,80,female,English,5db6e588867c22000dfffa54,Describe these results of <strong>Green Valley</strong> so as to make it appear as if there is a <strong>high</strong> success rate without lying.,The majority of the students got 75% or higher,9|9|9|0|0,In this exam,of the students got,of the questions,.,"%{""instances"" => [%{""n_col"" => 12, ""rows"" => [9, 9, 9, 0, 0]}], ""number"" => 7, ""sequence"" => [""BBBDD"", ""BBBBD"", ""BBBCD""], ""truth_table"" => []}",7,Fri Jan 24 2020 11:05:03 GMT-0500 (EST),1579881903197,1|1|1|1|1|1|1|1|1|0|0|0|1|1|1|1|1|1|1|1|1|0|0|0|1|1|1|1|1|1|1|1|1|0|0|0|0|0|0|0|0|0|0|0|0|0|0|0|0|0|0|0|0|0|0|0|0|0|0|0,5.34965,main_trials,7
11533,,14971,18,all|most|some|none,all|most|some|none,right|wrong,5,,high,placeholder,Graduated High School,1579882224176,placeholder,80,female,English,5db6e588867c22000dfffa54,Describe these results of <strong>Green Valley</strong> so as to make it appear as if there is a <strong>high</strong> success rate without lying.,None of the students received lower than a 3,12|12|3|3|3,In this exam,of the students got,of the questions,.,"%{""instances"" => [%{""n_col"" => 12, ""rows"" => [12, 12, 3, 3, 3]}], ""number"" => 13, ""sequence"" => [""ACCCC"", ""AACCC"", ""ABCCC""], ""truth_table"" => []}",13,Fri Jan 24 2020 11:05:03 GMT-0500 (EST),1579881903197,1|1|1|1|1|1|1|1|1|1|1|1|1|1|1|1|1|1|1|1|1|1|1|1|1|1|1|0|0|0|0|0|0|0|0|0|1|1|1|0|0|0|0|0|0|0|0|0|1|1|1|0|0|0|0|0|0|0|0|0,5.34965,main_trials,8
11533,,16664,18,all|most|some|none,all|most|some|none,right|wrong,5,,low,placeholder,Graduated High School,1579882224176,placeholder,80,female,English,5db6e588867c22000dfffa54,Describe these results of <strong>Riverside</strong> so as to make it appear as if there is a <strong>low</strong> success rate without lying.,The majority of students received a score of 0,12|12|0|0|0,In this exam,of the students got,of the questions,.,"%{""instances"" => [%{""n_col"" => 12, ""rows"" => [12, 12, 0, 0, 0]}], ""number"" => 4, ""sequence"" => [""ADDDD"", ""AADDD"", ""ABDDD"", ""ACDDD""], ""truth_table"" => []}",4,Fri Jan 24 2020 11:05:03 GMT-0500 (EST),1579881903197,1|1|1|1|1|1|1|1|1|1|1|1|1|1|1|1|1|1|1|1|1|1|1|1|0|0|0|0|0|0|0|0|0|0|0|0|0|0|0|0|0|0|0|0|0|0|0|0|0|0|0|0|0|0|0|0|0|0|0|0,5.34965,main_trials,9
11533,,20559,18,all|most|some|none,all|most|some|none,right|wrong,5,,low,placeholder,Graduated High School,1579882224176,placeholder,80,female,English,5db6e588867c22000dfffa54,Describe these results of <strong>Riverside</strong> so as to make it appear as if there is a <strong>low</strong> success rate without lying.,All of the students got a score of 0,0|0|0|0|0,In this exam,of the students got,of the questions,.,"%{""instances"" => [%{""n_col"" => 12, ""rows"" => [0, 0, 0, 0, 0]}], ""number"" => 10, ""sequence"" => [""DDDDD""], ""truth_table"" => []}",10,Fri Jan 24 2020 11:05:03 GMT-0500 (EST),1579881903197,0|0|0|0|0|0|0|0|0|0|0|0|0|0|0|0|0|0|0|0|0|0|0|0|0|0|0|0|0|0|0|0|0|0|0|0|0|0|0|0|0|0|0|0|0|0|0|0|0|0|0|0|0|0|0|0|0|0|0|0,5.34965,main_trials,10
11533,,39724,18,all|most|some|none,all|most|some|none,right|wrong,5,,low,placeholder,Graduated High School,1579882224176,placeholder,80,female,English,5db6e588867c22000dfffa54,Describe these results of <strong>Riverside</strong> so as to make it appear as if there is a <strong>low</strong> success rate without lying.,Only 3 students received a perfect score,12|12|12|9|9,In this exam,of the students got,of the questions,.,"%{""instances"" => [%{""n_col"" => 12, ""rows"" => '\f\f\f\t\t'}], ""number"" => 19, ""sequence"" => [""AAABB"", ""AAAAB""], ""truth_table"" => []}",19,Fri Jan 24 2020 11:05:03 GMT-0500 (EST),1579881903197,1|1|1|1|1|1|1|1|1|1|1|1|1|1|1|1|1|1|1|1|1|1|1|1|1|1|1|1|1|1|1|1|1|1|1|1|1|1|1|1|1|1|1|1|1|0|0|0|1|1|1|1|1|1|1|1|1|0|0|0,5.34965,main_trials,11
11534,,37227,20,all|most|some|none,all|most|some|none,right|wrong,5,,low,placeholder,Graduated High School,1579882605934,placeholder,80,female,english,5b901dce45cd3c0001003567,Describe these results of <strong>Riverside</strong> so as to make it appear as if there is a <strong>low</strong> success rate without lying.,all students had identical answers showing lack of individuality,12|12|12|12|12,In this exam,of the students got,of the questions,.,"%{""instances"" => [%{""n_col"" => 12, ""rows"" => '\f\f\f\f\f'}], ""number"" => 20, ""sequence"" => [""AAAAA""], ""truth_table"" => []}",20,Fri Jan 24 2020 16:09:36 GMT+0000 (Greenwich Mean Time),1579882176428,1|1|1|1|1|1|1|1|1|1|1|1|1|1|1|1|1|1|1|1|1|1|1|1|1|1|1|1|1|1|1|1|1|1|1|1|1|1|1|1|1|1|1|1|1|1|1|1|1|1|1|1|1|1|1|1|1|1|1|1,7.158433333333333,main_trials,1
11534,,65726,20,all|most|some|none,all|most|some|none,right|wrong,5,,high,placeholder,Graduated High School,1579882605934,placeholder,80,female,english,5b901dce45cd3c0001003567,Describe these results of <strong>Green Valley</strong> so as to make it appear as if there is a <strong>high</strong> success rate without lying.,over half of students passed with 90 percent,12|12|9|0|0,In this exam,of the students got,of the questions,.,"%{""instances"" => [%{""n_col"" => 12, ""rows"" => [12, 12, 9, 0, 0]}], ""number"" => 8, ""sequence"" => [""ABBBD"", ""ABBDD"", ""AABDD"", ""ABBBD"", ""ABBCD"", ""AABCD""], ""truth_table"" => []}",8,Fri Jan 24 2020 16:09:36 GMT+0000 (Greenwich Mean Time),1579882176428,1|1|1|1|1|1|1|1|1|1|1|1|1|1|1|1|1|1|1|1|1|1|1|1|1|1|1|1|1|1|1|1|1|0|0|0|0|0|0|0|0|0|0|0|0|0|0|0|0|0|0|0|0|0|0|0|0|0|0|0,7.158433333333333,main_trials,2
11534,,16707,20,all|most|some|none,all|most|some|none,right|wrong,5,,low,placeholder,Graduated High School,1579882605934,placeholder,80,female,english,5b901dce45cd3c0001003567,Describe these results of <strong>Riverside</strong> so as to make it appear as if there is a <strong>low</strong> success rate without lying.,None of the students achieved full marks,9|9|9|3|3,In this exam,of the students got,of the questions,.,"%{""instances"" => [%{""n_col"" => 12, ""rows"" => [9, 9, 9, 3, 3]}], ""number"" => 14, ""sequence"" => [""BBBCC"", ""BBBBC""], ""truth_table"" => []}",14,Fri Jan 24 2020 16:09:36 GMT+0000 (Greenwich Mean Time),1579882176428,1|1|1|1|1|1|1|1|1|0|0|0|1|1|1|1|1|1|1|1|1|0|0|0|1|1|1|1|1|1|1|1|1|0|0|0|1|1|1|0|0|0|0|0|0|0|0|0|1|1|1|0|0|0|0|0|0|0|0|0,7.158433333333333,main_trials,3
11534,,20672,20,all|most|some|none,all|most|some|none,right|wrong,5,,high,placeholder,Graduated High School,1579882605934,placeholder,80,female,english,5b901dce45cd3c0001003567,Describe these results of <strong>Green Valley</strong> so as to make it appear as if there is a <strong>high</strong> success rate without lying.,all students passed with a 90% mark,9|9|9|9|9,In this exam,of the students got,of the questions,.,"%{""instances"" => [%{""n_col"" => 12, ""rows"" => '\t\t\t\t\t'}], ""number"" => 17, ""sequence"" => [""BBBBB""], ""truth_table"" => []}",17,Fri Jan 24 2020 16:09:36 GMT+0000 (Greenwich Mean Time),1579882176428,1|1|1|1|1|1|1|1|1|0|0|0|1|1|1|1|1|1|1|1|1|0|0|0|1|1|1|1|1|1|1|1|1|0|0|0|1|1|1|1|1|1|1|1|1|0|0|0|1|1|1|1|1|1|1|1|1|0|0|0,7.158433333333333,main_trials,4
11534,,45393,20,all|most|some|none,all|most|some|none,right|wrong,5,,high,placeholder,Graduated High School,1579882605934,placeholder,80,female,english,5b901dce45cd3c0001003567,Describe these results of <strong>Green Valley</strong> so as to make it appear as if there is a <strong>high</strong> success rate without lying.,no students failed,12|12|9|3|3,In this exam,of the students got,of the questions,.,"%{""instances"" => [%{""n_col"" => 12, ""rows"" => [12, 12, 9, 3, 3]}], ""number"" => 15, ""sequence"" => [""ABBBC"", ""ABBCC"", ""AABCC"", ""AABBC""], ""truth_table"" => []}",15,Fri Jan 24 2020 16:09:36 GMT+0000 (Greenwich Mean Time),1579882176428,1|1|1|1|1|1|1|1|1|1|1|1|1|1|1|1|1|1|1|1|1|1|1|1|1|1|1|1|1|1|1|1|1|0|0|0|1|1|1|0|0|0|0|0|0|0|0|0|1|1|1|0|0|0|0|0|0|0|0|0,7.158433333333333,main_trials,5
11534,,20196,20,all|most|some|none,all|most|some|none,right|wrong,5,,high,placeholder,Graduated High School,1579882605934,placeholder,80,female,english,5b901dce45cd3c0001003567,Describe these results of <strong>Green Valley</strong> so as to make it appear as if there is a <strong>high</strong> success rate without lying.,all students achieved 90% or more,12|12|9|9|9,In this exam,of the students got,of the questions,.,"%{""instances"" => [%{""n_col"" => 12, ""rows"" => '\f\f\t\t\t'}], ""number"" => 18, ""sequence"" => [""ABBBB"", ""AABBB""], ""truth_table"" => []}",18,Fri Jan 24 2020 16:09:36 GMT+0000 (Greenwich Mean Time),1579882176428,1|1|1|1|1|1|1|1|1|1|1|1|1|1|1|1|1|1|1|1|1|1|1|1|1|1|1|1|1|1|1|1|1|0|0|0|1|1|1|1|1|1|1|1|1|0|0|0|1|1|1|1|1|1|1|1|1|0|0|0,7.158433333333333,main_trials,6
11534,,22158,20,all|most|some|none,all|most|some|none,right|wrong,5,,high,placeholder,Graduated High School,1579882605934,placeholder,80,female,english,5b901dce45cd3c0001003567,Describe these results of <strong>Green Valley</strong> so as to make it appear as if there is a <strong>high</strong> success rate without lying.,over half of students achieved full marks,12|12|12|9|9,In this exam,of the students got,of the questions,.,"%{""instances"" => [%{""n_col"" => 12, ""rows"" => '\f\f\f\t\t'}], ""number"" => 19, ""sequence"" => [""AAABB"", ""AAAAB""], ""truth_table"" => []}",19,Fri Jan 24 2020 16:09:36 GMT+0000 (Greenwich Mean Time),1579882176428,1|1|1|1|1|1|1|1|1|1|1|1|1|1|1|1|1|1|1|1|1|1|1|1|1|1|1|1|1|1|1|1|1|1|1|1|1|1|1|1|1|1|1|1|1|0|0|0|1|1|1|1|1|1|1|1|1|0|0|0,7.158433333333333,main_trials,7
11534,,22121,20,all|most|some|none,all|most|some|none,right|wrong,5,,low,placeholder,Graduated High School,1579882605934,placeholder,80,female,english,5b901dce45cd3c0001003567,Describe these results of <strong>Riverside</strong> so as to make it appear as if there is a <strong>low</strong> success rate without lying.,2/5 of students had all incorrect answers,12|12|12|0|0,In this exam,of the students got,of the questions,.,"%{""instances"" => [%{""n_col"" => 12, ""rows"" => [12, 12, 12, 0, 0]}], ""number"" => 9, ""sequence"" => [""AAADD"", ""AAAAD"", ""AAABD"", ""AAACD""], ""truth_table"" => []}",9,Fri Jan 24 2020 16:09:36 GMT+0000 (Greenwich Mean Time),1579882176428,1|1|1|1|1|1|1|1|1|1|1|1|1|1|1|1|1|1|1|1|1|1|1|1|1|1|1|1|1|1|1|1|1|1|1|1|0|0|0|0|0|0|0|0|0|0|0|0|0|0|0|0|0|0|0|0|0|0|0|0,7.158433333333333,main_trials,8
11534,,36784,20,all|most|some|none,all|most|some|none,right|wrong,5,,high,placeholder,Graduated High School,1579882605934,placeholder,80,female,english,5b901dce45cd3c0001003567,Describe these results of <strong>Green Valley</strong> so as to make it appear as if there is a <strong>high</strong> success rate without lying.,top achievers scored at least 90%,9|9|0|0|0,In this exam,of the students got,of the questions,.,"%{""instances"" => [%{""n_col"" => 12, ""rows"" => [9, 9, 0, 0, 0]}], ""number"" => 3, ""sequence"" => [""BDDDD"", ""BBDDD"", ""BCDDD""], ""truth_table"" => []}",3,Fri Jan 24 2020 16:09:36 GMT+0000 (Greenwich Mean Time),1579882176428,1|1|1|1|1|1|1|1|1|0|0|0|1|1|1|1|1|1|1|1|1|0|0|0|0|0|0|0|0|0|0|0|0|0|0|0|0|0|0|0|0|0|0|0|0|0|0|0|0|0|0|0|0|0|0|0|0|0|0|0,7.158433333333333,main_trials,9
11534,,14390,20,all|most|some|none,all|most|some|none,right|wrong,5,,low,placeholder,Graduated High School,1579882605934,placeholder,80,female,english,5b901dce45cd3c0001003567,Describe these results of <strong>Riverside</strong> so as to make it appear as if there is a <strong>low</strong> success rate without lying.,over half of students had no marks,12|12|0|0|0,In this exam,of the students got,of the questions,.,"%{""instances"" => [%{""n_col"" => 12, ""rows"" => [12, 12, 0, 0, 0]}], ""number"" => 4, ""sequence"" => [""ADDDD"", ""AADDD"", ""ABDDD"", ""ACDDD""], ""truth_table"" => []}",4,Fri Jan 24 2020 16:09:36 GMT+0000 (Greenwich Mean Time),1579882176428,1|1|1|1|1|1|1|1|1|1|1|1|1|1|1|1|1|1|1|1|1|1|1|1|0|0|0|0|0|0|0|0|0|0|0|0|0|0|0|0|0|0|0|0|0|0|0|0|0|0|0|0|0|0|0|0|0|0|0|0,7.158433333333333,main_trials,10
11534,,21429,20,all|most|some|none,all|most|some|none,right|wrong,5,,low,placeholder,Graduated High School,1579882605934,placeholder,80,female,english,5b901dce45cd3c0001003567,Describe these results of <strong>Riverside</strong> so as to make it appear as if there is a <strong>low</strong> success rate without lying.,less than half achieved full marks,12|12|3|3|3,In this exam,of the students got,of the questions,.,"%{""instances"" => [%{""n_col"" => 12, ""rows"" => [12, 12, 3, 3, 3]}], ""number"" => 13, ""sequence"" => [""ACCCC"", ""AACCC"", ""ABCCC""], ""truth_table"" => []}",13,Fri Jan 24 2020 16:09:36 GMT+0000 (Greenwich Mean Time),1579882176428,1|1|1|1|1|1|1|1|1|1|1|1|1|1|1|1|1|1|1|1|1|1|1|1|1|1|1|0|0|0|0|0|0|0|0|0|1|1|1|0|0|0|0|0|0|0|0|0|1|1|1|0|0|0|0|0|0|0|0|0,7.158433333333333,main_trials,11
11539,,43595,18,all|most|some|none,all|most|some|none,right|wrong,5,,low,placeholder,Graduated High School,1579882796121,placeholder,80,male,English,5d0a5d75754b2f001af88fd3,Describe these results of <strong>Riverside</strong> so as to make it appear as if there is a <strong>low</strong> success rate without lying.,Only five students out of the entire school received perfect scores.,12|12|12|12|12,In this exam,of the students got,of the questions,.,"%{""instances"" => [%{""n_col"" => 12, ""rows"" => '\f\f\f\f\f'}], ""number"" => 20, ""sequence"" => [""AAAAA""], ""truth_table"" => []}",20,Fri Jan 24 2020 11:12:59 GMT-0500 (EST),1579882379206,1|1|1|1|1|1|1|1|1|1|1|1|1|1|1|1|1|1|1|1|1|1|1|1|1|1|1|1|1|1|1|1|1|1|1|1|1|1|1|1|1|1|1|1|1|1|1|1|1|1|1|1|1|1|1|1|1|1|1|1,6.948583333333334,main_trials,1
11539,,34327,18,all|most|some|none,all|most|some|none,right|wrong,5,,high,placeholder,Graduated High School,1579882796121,placeholder,80,male,English,5d0a5d75754b2f001af88fd3,Describe these results of <strong>Green Valley</strong> so as to make it appear as if there is a <strong>high</strong> success rate without lying.,Majority of the students received good markings for a portion of the questions.,3|3|3|0|0,In this exam,of the students got,of the questions,.,"%{""instances"" => [%{""n_col"" => 12, ""rows"" => [3, 3, 3, 0, 0]}], ""number"" => 5, ""sequence"" => [""CCCDD"", ""CCCCD""], ""truth_table"" => []}",5,Fri Jan 24 2020 11:12:59 GMT-0500 (EST),1579882379206,1|1|1|0|0|0|0|0|0|0|0|0|1|1|1|0|0|0|0|0|0|0|0|0|1|1|1|0|0|0|0|0|0|0|0|0|0|0|0|0|0|0|0|0|0|0|0|0|0|0|0|0|0|0|0|0|0|0|0|0,6.948583333333334,main_trials,2
11539,,48254,18,all|most|some|none,all|most|some|none,right|wrong,5,,high,placeholder,Graduated High School,1579882796121,placeholder,80,male,English,5d0a5d75754b2f001af88fd3,Describe these results of <strong>Green Valley</strong> so as to make it appear as if there is a <strong>high</strong> success rate without lying.,"20% of students received a perfect score, which is much higher than usual!",12|12|3|0|0,In this exam,of the students got,of the questions,.,"%{""instances"" => [%{""n_col"" => 12, ""rows"" => [12, 12, 3, 0, 0]}], ""number"" => 1, ""sequence"" => [""ACCCD"", ""ACCDD"", ""AACDD"", ""AACCD"", ""ABCDD"", ""ABCCD""], ""truth_table"" => []}",1,Fri Jan 24 2020 11:12:59 GMT-0500 (EST),1579882379206,1|1|1|1|1|1|1|1|1|1|1|1|1|1|1|1|1|1|1|1|1|1|1|1|1|1|1|0|0|0|0|0|0|0|0|0|0|0|0|0|0|0|0|0|0|0|0|0|0|0|0|0|0|0|0|0|0|0|0|0,6.948583333333334,main_trials,3
11539,,13386,18,all|most|some|none,all|most|some|none,right|wrong,5,,low,placeholder,Graduated High School,1579882796121,placeholder,80,male,English,5d0a5d75754b2f001af88fd3,Describe these results of <strong>Riverside</strong> so as to make it appear as if there is a <strong>low</strong> success rate without lying.,Majority of students technically failed this exam.,12|12|3|3|3,In this exam,of the students got,of the questions,.,"%{""instances"" => [%{""n_col"" => 12, ""rows"" => [12, 12, 3, 3, 3]}], ""number"" => 13, ""sequence"" => [""ACCCC"", ""AACCC"", ""ABCCC""], ""truth_table"" => []}",13,Fri Jan 24 2020 11:12:59 GMT-0500 (EST),1579882379206,1|1|1|1|1|1|1|1|1|1|1|1|1|1|1|1|1|1|1|1|1|1|1|1|1|1|1|0|0|0|0|0|0|0|0|0|1|1|1|0|0|0|0|0|0|0|0|0|1|1|1|0|0|0|0|0|0|0|0|0,6.948583333333334,main_trials,4
11539,,44762,18,all|most|some|none,all|most|some|none,right|wrong,5,,low,placeholder,Graduated High School,1579882796121,placeholder,80,male,English,5d0a5d75754b2f001af88fd3,Describe these results of <strong>Riverside</strong> so as to make it appear as if there is a <strong>low</strong> success rate without lying.,"40% of the school failed this exam, which is much lower than average.",12|12|12|3|3,In this exam,of the students got,of the questions,.,"%{""instances"" => [%{""n_col"" => 12, ""rows"" => [12, 12, 12, 3, 3]}], ""number"" => 16, ""sequence"" => [""AAACC"", ""AAAAC"", ""AAABC""], ""truth_table"" => []}",16,Fri Jan 24 2020 11:12:59 GMT-0500 (EST),1579882379206,1|1|1|1|1|1|1|1|1|1|1|1|1|1|1|1|1|1|1|1|1|1|1|1|1|1|1|1|1|1|1|1|1|1|1|1|1|1|1|0|0|0|0|0|0|0|0|0|1|1|1|0|0|0|0|0|0|0|0|0,6.948583333333334,main_trials,5
11539,,14094,18,all|most|some|none,all|most|some|none,right|wrong,5,,low,placeholder,Graduated High School,1579882796121,placeholder,80,male,English,5d0a5d75754b2f001af88fd3,Describe these results of <strong>Riverside</strong> so as to make it appear as if there is a <strong>low</strong> success rate without lying.,Not a single student got a perfect score.,9|9|9|3|3,In this exam,of the students got,of the questions,.,"%{""instances"" => [%{""n_col"" => 12, ""rows"" => [9, 9, 9, 3, 3]}], ""number"" => 14, ""sequence"" => [""BBBCC"", ""BBBBC""], ""truth_table"" => []}",14,Fri Jan 24 2020 11:12:59 GMT-0500 (EST),1579882379206,1|1|1|1|1|1|1|1|1|0|0|0|1|1|1|1|1|1|1|1|1|0|0|0|1|1|1|1|1|1|1|1|1|0|0|0|1|1|1|0|0|0|0|0|0|0|0|0|1|1|1|0|0|0|0|0|0|0|0|0,6.948583333333334,main_trials,6
11539,,16337,18,all|most|some|none,all|most|some|none,right|wrong,5,,low,placeholder,Graduated High School,1579882796121,placeholder,80,male,English,5d0a5d75754b2f001af88fd3,Describe these results of <strong>Riverside</strong> so as to make it appear as if there is a <strong>low</strong> success rate without lying.,Not a single student out of the entire school got a perfect score.,9|9|9|9|9,In this exam,of the students got,of the questions,.,"%{""instances"" => [%{""n_col"" => 12, ""rows"" => '\t\t\t\t\t'}], ""number"" => 17, ""sequence"" => [""BBBBB""], ""truth_table"" => []}",17,Fri Jan 24 2020 11:12:59 GMT-0500 (EST),1579882379206,1|1|1|1|1|1|1|1|1|0|0|0|1|1|1|1|1|1|1|1|1|0|0|0|1|1|1|1|1|1|1|1|1|0|0|0|1|1|1|1|1|1|1|1|1|0|0|0|1|1|1|1|1|1|1|1|1|0|0|0,6.948583333333334,main_trials,7
11539,,24318,18,all|most|some|none,all|most|some|none,right|wrong,5,,high,placeholder,Graduated High School,1579882796121,placeholder,80,male,English,5d0a5d75754b2f001af88fd3,Describe these results of <strong>Green Valley</strong> so as to make it appear as if there is a <strong>high</strong> success rate without lying.,"100% of these students passed the exam, which is much higher than average.",12|12|9|9|9,In this exam,of the students got,of the questions,.,"%{""instances"" => [%{""n_col"" => 12, ""rows"" => '\f\f\t\t\t'}], ""number"" => 18, ""sequence"" => [""ABBBB"", ""AABBB""], ""truth_table"" => []}",18,Fri Jan 24 2020 11:12:59 GMT-0500 (EST),1579882379206,1|1|1|1|1|1|1|1|1|1|1|1|1|1|1|1|1|1|1|1|1|1|1|1|1|1|1|1|1|1|1|1|1|0|0|0|1|1|1|1|1|1|1|1|1|0|0|0|1|1|1|1|1|1|1|1|1|0|0|0,6.948583333333334,main_trials,8
11539,,38700,18,all|most|some|none,all|most|some|none,right|wrong,5,,high,placeholder,Graduated High School,1579882796121,placeholder,80,male,English,5d0a5d75754b2f001af88fd3,Describe these results of <strong>Green Valley</strong> so as to make it appear as if there is a <strong>high</strong> success rate without lying.,Every student received great markings for a portion of the questions from this exam.,9|9|3|3|3,In this exam,of the students got,of the questions,.,"%{""instances"" => [%{""n_col"" => 12, ""rows"" => [9, 9, 3, 3, 3]}], ""number"" => 12, ""sequence"" => [""BCCCC"", ""BBCCC""], ""truth_table"" => []}",12,Fri Jan 24 2020 11:12:59 GMT-0500 (EST),1579882379206,1|1|1|1|1|1|1|1|1|0|0|0|1|1|1|1|1|1|1|1|1|0|0|0|1|1|1|0|0|0|0|0|0|0|0|0|1|1|1|0|0|0|0|0|0|0|0|0|1|1|1|0|0|0|0|0|0|0|0|0,6.948583333333334,main_trials,9
11539,,12163,18,all|most|some|none,all|most|some|none,right|wrong,5,,low,placeholder,Graduated High School,1579882796121,placeholder,80,male,English,5d0a5d75754b2f001af88fd3,Describe these results of <strong>Riverside</strong> so as to make it appear as if there is a <strong>low</strong> success rate without lying.,Every student completely failed this exam.,0|0|0|0|0,In this exam,of the students got,of the questions,.,"%{""instances"" => [%{""n_col"" => 12, ""rows"" => [0, 0, 0, 0, 0]}], ""number"" => 10, ""sequence"" => [""DDDDD""], ""truth_table"" => []}",10,Fri Jan 24 2020 11:12:59 GMT-0500 (EST),1579882379206,0|0|0|0|0|0|0|0|0|0|0|0|0|0|0|0|0|0|0|0|0|0|0|0|0|0|0|0|0|0|0|0|0|0|0|0|0|0|0|0|0|0|0|0|0|0|0|0|0|0|0|0|0|0|0|0|0|0|0|0,6.948583333333334,main_trials,10
11539,,13616,18,all|most|some|none,all|most|some|none,right|wrong,5,,low,placeholder,Graduated High School,1579882796121,placeholder,80,male,English,5d0a5d75754b2f001af88fd3,Describe these results of <strong>Riverside</strong> so as to make it appear as if there is a <strong>low</strong> success rate without lying.,Majority of students received a 0% on this exam.,12|12|0|0|0,In this exam,of the students got,of the questions,.,"%{""instances"" => [%{""n_col"" => 12, ""rows"" => [12, 12, 0, 0, 0]}], ""number"" => 4, ""sequence"" => [""ADDDD"", ""AADDD"", ""ABDDD"", ""ACDDD""], ""truth_table"" => []}",4,Fri Jan 24 2020 11:12:59 GMT-0500 (EST),1579882379206,1|1|1|1|1|1|1|1|1|1|1|1|1|1|1|1|1|1|1|1|1|1|1|1|0|0|0|0|0|0|0|0|0|0|0|0|0|0|0|0|0|0|0|0|0|0|0|0|0|0|0|0|0|0|0|0|0|0|0|0,6.948583333333334,main_trials,11
11541,,49903,50,all|most|some|none,all|most|some|none,right|wrong,5,,high,placeholder,Higher Degree,1579883082546,placeholder,80,male,english,5cee32a9dcd227000195f3a4,Describe these results of <strong>Green Valley</strong> so as to make it appear as if there is a <strong>high</strong> success rate without lying.,Most of the students scored above 75% on the questions,9|9|9|0|0,In this exam,of the students got,of the questions,.,"%{""instances"" => [%{""n_col"" => 12, ""rows"" => [9, 9, 9, 0, 0]}], ""number"" => 7, ""sequence"" => [""BBBDD"", ""BBBBD"", ""BBBCD""], ""truth_table"" => []}",7,Fri Jan 24 2020 16:16:04 GMT+0000 (GMT),1579882564508,1|1|1|1|1|1|1|1|1|0|0|0|1|1|1|1|1|1|1|1|1|0|0|0|1|1|1|1|1|1|1|1|1|0|0|0|0|0|0|0|0|0|0|0|0|0|0|0|0|0|0|0|0|0|0|0|0|0|0|0,8.633966666666666,main_trials,1
11541,,30775,50,all|most|some|none,all|most|some|none,right|wrong,5,,low,placeholder,Higher Degree,1579883082546,placeholder,80,male,english,5cee32a9dcd227000195f3a4,Describe these results of <strong>Riverside</strong> so as to make it appear as if there is a <strong>low</strong> success rate without lying.,all of the students scored less than 25%,3|3|0|0|0,In this exam,of the students got,of the questions,.,"%{""instances"" => [%{""n_col"" => 12, ""rows"" => [3, 3, 0, 0, 0]}], ""number"" => 2, ""sequence"" => [""CDDDD"", ""CCDDD""], ""truth_table"" => []}",2,Fri Jan 24 2020 16:16:04 GMT+0000 (GMT),1579882564508,1|1|1|0|0|0|0|0|0|0|0|0|1|1|1|0|0|0|0|0|0|0|0|0|0|0|0|0|0|0|0|0|0|0|0|0|0|0|0|0|0|0|0|0|0|0|0|0|0|0|0|0|0|0|0|0|0|0|0|0,8.633966666666666,main_trials,2
11541,,20557,50,all|most|some|none,all|most|some|none,right|wrong,5,,low,placeholder,Higher Degree,1579883082546,placeholder,80,male,english,5cee32a9dcd227000195f3a4,Describe these results of <strong>Riverside</strong> so as to make it appear as if there is a <strong>low</strong> success rate without lying.,less than half the students got more than 25% correct,12|12|3|3|3,In this exam,of the students got,of the questions,.,"%{""instances"" => [%{""n_col"" => 12, ""rows"" => [12, 12, 3, 3, 3]}], ""number"" => 13, ""sequence"" => [""ACCCC"", ""AACCC"", ""ABCCC""], ""truth_table"" => []}",13,Fri Jan 24 2020 16:16:04 GMT+0000 (GMT),1579882564508,1|1|1|1|1|1|1|1|1|1|1|1|1|1|1|1|1|1|1|1|1|1|1|1|1|1|1|0|0|0|0|0|0|0|0|0|1|1|1|0|0|0|0|0|0|0|0|0|1|1|1|0|0|0|0|0|0|0|0|0,8.633966666666666,main_trials,3
11541,,18652,50,all|most|some|none,all|most|some|none,right|wrong,5,,low,placeholder,Higher Degree,1579883082546,placeholder,80,male,english,5cee32a9dcd227000195f3a4,Describe these results of <strong>Riverside</strong> so as to make it appear as if there is a <strong>low</strong> success rate without lying.,more than half the students got all the questions wrong,12|12|0|0|0,In this exam,of the students got,of the questions,.,"%{""instances"" => [%{""n_col"" => 12, ""rows"" => [12, 12, 0, 0, 0]}], ""number"" => 4, ""sequence"" => [""ADDDD"", ""AADDD"", ""ABDDD"", ""ACDDD""], ""truth_table"" => []}",4,Fri Jan 24 2020 16:16:04 GMT+0000 (GMT),1579882564508,1|1|1|1|1|1|1|1|1|1|1|1|1|1|1|1|1|1|1|1|1|1|1|1|0|0|0|0|0|0|0|0|0|0|0|0|0|0|0|0|0|0|0|0|0|0|0|0|0|0|0|0|0|0|0|0|0|0|0|0,8.633966666666666,main_trials,4
11541,,31972,50,all|most|some|none,all|most|some|none,right|wrong,5,,low,placeholder,Higher Degree,1579883082546,placeholder,80,male,english,5cee32a9dcd227000195f3a4,Describe these results of <strong>Riverside</strong> so as to make it appear as if there is a <strong>low</strong> success rate without lying.,at least 40% of the students got all questions incorrect,12|12|12|0|0,In this exam,of the students got,of the questions,.,"%{""instances"" => [%{""n_col"" => 12, ""rows"" => [12, 12, 12, 0, 0]}], ""number"" => 9, ""sequence"" => [""AAADD"", ""AAAAD"", ""AAABD"", ""AAACD""], ""truth_table"" => []}",9,Fri Jan 24 2020 16:16:04 GMT+0000 (GMT),1579882564508,1|1|1|1|1|1|1|1|1|1|1|1|1|1|1|1|1|1|1|1|1|1|1|1|1|1|1|1|1|1|1|1|1|1|1|1|0|0|0|0|0|0|0|0|0|0|0|0|0|0|0|0|0|0|0|0|0|0|0|0,8.633966666666666,main_trials,5
11541,,82641,50,all|most|some|none,all|most|some|none,right|wrong,5,,high,placeholder,Higher Degree,1579883082546,placeholder,80,male,english,5cee32a9dcd227000195f3a4,Describe these results of <strong>Green Valley</strong> so as to make it appear as if there is a <strong>high</strong> success rate without lying.,None of the students got everything wrong,9|9|3|3|3,In this exam,of the students got,of the questions,.,"%{""instances"" => [%{""n_col"" => 12, ""rows"" => [9, 9, 3, 3, 3]}], ""number"" => 12, ""sequence"" => [""BCCCC"", ""BBCCC""], ""truth_table"" => []}",12,Fri Jan 24 2020 16:16:04 GMT+0000 (GMT),1579882564508,1|1|1|1|1|1|1|1|1|0|0|0|1|1|1|1|1|1|1|1|1|0|0|0|1|1|1|0|0|0|0|0|0|0|0|0|1|1|1|0|0|0|0|0|0|0|0|0|1|1|1|0|0|0|0|0|0|0|0|0,8.633966666666666,main_trials,6
11541,,103008,50,all|most|some|none,all|most|some|none,right|wrong,5,,low,placeholder,Higher Degree,1579883082546,placeholder,80,male,english,5cee32a9dcd227000195f3a4,Describe these results of <strong>Riverside</strong> so as to make it appear as if there is a <strong>low</strong> success rate without lying.,At least 40% of students got all questions wrong,12|12|9|0|0,In this exam,of the students got,of the questions,.,"%{""instances"" => [%{""n_col"" => 12, ""rows"" => [12, 12, 9, 0, 0]}], ""number"" => 8, ""sequence"" => [""ABBBD"", ""ABBDD"", ""AABDD"", ""ABBBD"", ""ABBCD"", ""AABCD""], ""truth_table"" => []}",8,Fri Jan 24 2020 16:16:04 GMT+0000 (GMT),1579882564508,1|1|1|1|1|1|1|1|1|1|1|1|1|1|1|1|1|1|1|1|1|1|1|1|1|1|1|1|1|1|1|1|1|0|0|0|0|0|0|0|0|0|0|0|0|0|0|0|0|0|0|0|0|0|0|0|0|0|0|0,8.633966666666666,main_trials,7
11541,,42611,50,all|most|some|none,all|most|some|none,right|wrong,5,,low,placeholder,Higher Degree,1579883082546,placeholder,80,male,english,5cee32a9dcd227000195f3a4,Describe these results of <strong>Riverside</strong> so as to make it appear as if there is a <strong>low</strong> success rate without lying.,almost half of the students got 75% of questions wrong.,12|12|12|3|3,In this exam,of the students got,of the questions,.,"%{""instances"" => [%{""n_col"" => 12, ""rows"" => [12, 12, 12, 3, 3]}], ""number"" => 16, ""sequence"" => [""AAACC"", ""AAAAC"", ""AAABC""], ""truth_table"" => []}",16,Fri Jan 24 2020 16:16:04 GMT+0000 (GMT),1579882564508,1|1|1|1|1|1|1|1|1|1|1|1|1|1|1|1|1|1|1|1|1|1|1|1|1|1|1|1|1|1|1|1|1|1|1|1|1|1|1|0|0|0|0|0|0|0|0|0|1|1|1|0|0|0|0|0|0|0|0|0,8.633966666666666,main_trials,8
11541,,13663,50,all|most|some|none,all|most|some|none,right|wrong,5,,low,placeholder,Higher Degree,1579883082546,placeholder,80,male,english,5cee32a9dcd227000195f3a4,Describe these results of <strong>Riverside</strong> so as to make it appear as if there is a <strong>low</strong> success rate without lying.,no students got more than 75% correct,9|9|9|3|3,In this exam,of the students got,of the questions,.,"%{""instances"" => [%{""n_col"" => 12, ""rows"" => [9, 9, 9, 3, 3]}], ""number"" => 14, ""sequence"" => [""BBBCC"", ""BBBBC""], ""truth_table"" => []}",14,Fri Jan 24 2020 16:16:04 GMT+0000 (GMT),1579882564508,1|1|1|1|1|1|1|1|1|0|0|0|1|1|1|1|1|1|1|1|1|0|0|0|1|1|1|1|1|1|1|1|1|0|0|0|1|1|1|0|0|0|0|0|0|0|0|0|1|1|1|0|0|0|0|0|0|0|0|0,8.633966666666666,main_trials,9
11541,,27587,50,all|most|some|none,all|most|some|none,right|wrong,5,,high,placeholder,Higher Degree,1579883082546,placeholder,80,male,english,5cee32a9dcd227000195f3a4,Describe these results of <strong>Green Valley</strong> so as to make it appear as if there is a <strong>high</strong> success rate without lying.,All students got 75% or more correct,12|12|9|9|9,In this exam,of the students got,of the questions,.,"%{""instances"" => [%{""n_col"" => 12, ""rows"" => '\f\f\t\t\t'}], ""number"" => 18, ""sequence"" => [""ABBBB"", ""AABBB""], ""truth_table"" => []}",18,Fri Jan 24 2020 16:16:04 GMT+0000 (GMT),1579882564508,1|1|1|1|1|1|1|1|1|1|1|1|1|1|1|1|1|1|1|1|1|1|1|1|1|1|1|1|1|1|1|1|1|0|0|0|1|1|1|1|1|1|1|1|1|0|0|0|1|1|1|1|1|1|1|1|1|0|0|0,8.633966666666666,main_trials,10
11541,,18106,50,all|most|some|none,all|most|some|none,right|wrong,5,,high,placeholder,Higher Degree,1579883082546,placeholder,80,male,english,5cee32a9dcd227000195f3a4,Describe these results of <strong>Green Valley</strong> so as to make it appear as if there is a <strong>high</strong> success rate without lying.,40% of our students scored 75%,9|9|0|0|0,In this exam,of the students got,of the questions,.,"%{""instances"" => [%{""n_col"" => 12, ""rows"" => [9, 9, 0, 0, 0]}], ""number"" => 3, ""sequence"" => [""BDDDD"", ""BBDDD"", ""BCDDD""], ""truth_table"" => []}",3,Fri Jan 24 2020 16:16:04 GMT+0000 (GMT),1579882564508,1|1|1|1|1|1|1|1|1|0|0|0|1|1|1|1|1|1|1|1|1|0|0|0|0|0|0|0|0|0|0|0|0|0|0|0|0|0|0|0|0|0|0|0|0|0|0|0|0|0|0|0|0|0|0|0|0|0|0|0,8.633966666666666,main_trials,11
11535,,59155,38,all|most|some|none,all|most|some|none,right|wrong,5,,high,placeholder,Higher Degree,1579882631700,placeholder,80,female,English ,5d45d4dfd7d4b80001384ce6,Describe these results of <strong>Green Valley</strong> so as to make it appear as if there is a <strong>high</strong> success rate without lying.,60% of students achieved more than half the questions right and 40% of students achieved full marks,12|12|9|0|0,In this exam,of the students got,of the questions,.,"%{""instances"" => [%{""n_col"" => 12, ""rows"" => [12, 12, 9, 0, 0]}], ""number"" => 8, ""sequence"" => [""ABBBD"", ""ABBDD"", ""AABDD"", ""ABBBD"", ""ABBCD"", ""AABCD""], ""truth_table"" => []}",8,Fri Jan 24 2020 16:11:06 GMT+0000 (GMT),1579882266600,1|1|1|1|1|1|1|1|1|1|1|1|1|1|1|1|1|1|1|1|1|1|1|1|1|1|1|1|1|1|1|1|1|0|0|0|0|0|0|0|0|0|0|0|0|0|0|0|0|0|0|0|0|0|0|0|0|0|0|0,6.085,main_trials,1
11535,,25087,38,all|most|some|none,all|most|some|none,right|wrong,5,,low,placeholder,Higher Degree,1579882631700,placeholder,80,female,English ,5d45d4dfd7d4b80001384ce6,Describe these results of <strong>Riverside</strong> so as to make it appear as if there is a <strong>low</strong> success rate without lying.,All students failed 3 or more questions,9|9|3|0|0,In this exam,of the students got,of the questions,.,"%{""instances"" => [%{""n_col"" => 12, ""rows"" => [9, 9, 3, 0, 0]}], ""number"" => 6, ""sequence"" => [""BCCCD"", ""BCCDD"", ""BBCDD"", ""BBCCD""], ""truth_table"" => []}",6,Fri Jan 24 2020 16:11:06 GMT+0000 (GMT),1579882266600,1|1|1|1|1|1|1|1|1|0|0|0|1|1|1|1|1|1|1|1|1|0|0|0|1|1|1|0|0|0|0|0|0|0|0|0|0|0|0|0|0|0|0|0|0|0|0|0|0|0|0|0|0|0|0|0|0|0|0|0,6.085,main_trials,2
11535,,21995,38,all|most|some|none,all|most|some|none,right|wrong,5,,high,placeholder,Higher Degree,1579882631700,placeholder,80,female,English ,5d45d4dfd7d4b80001384ce6,Describe these results of <strong>Green Valley</strong> so as to make it appear as if there is a <strong>high</strong> success rate without lying.,60% of students achieved full marks,12|12|12|3|3,In this exam,of the students got,of the questions,.,"%{""instances"" => [%{""n_col"" => 12, ""rows"" => [12, 12, 12, 3, 3]}], ""number"" => 16, ""sequence"" => [""AAACC"", ""AAAAC"", ""AAABC""], ""truth_table"" => []}",16,Fri Jan 24 2020 16:11:06 GMT+0000 (GMT),1579882266600,1|1|1|1|1|1|1|1|1|1|1|1|1|1|1|1|1|1|1|1|1|1|1|1|1|1|1|1|1|1|1|1|1|1|1|1|1|1|1|0|0|0|0|0|0|0|0|0|1|1|1|0|0|0|0|0|0|0|0|0,6.085,main_trials,3
11535,,25879,38,all|most|some|none,all|most|some|none,right|wrong,5,,high,placeholder,Higher Degree,1579882631700,placeholder,80,female,English ,5d45d4dfd7d4b80001384ce6,Describe these results of <strong>Green Valley</strong> so as to make it appear as if there is a <strong>high</strong> success rate without lying.,40% of students answered questions correctly,3|3|0|0|0,In this exam,of the students got,of the questions,.,"%{""instances"" => [%{""n_col"" => 12, ""rows"" => [3, 3, 0, 0, 0]}], ""number"" => 2, ""sequence"" => [""CDDDD"", ""CCDDD""], ""truth_table"" => []}",2,Fri Jan 24 2020 16:11:06 GMT+0000 (GMT),1579882266600,1|1|1|0|0|0|0|0|0|0|0|0|1|1|1|0|0|0|0|0|0|0|0|0|0|0|0|0|0|0|0|0|0|0|0|0|0|0|0|0|0|0|0|0|0|0|0|0|0|0|0|0|0|0|0|0|0|0|0|0,6.085,main_trials,4
11535,,27851,38,all|most|some|none,all|most|some|none,right|wrong,5,,high,placeholder,Higher Degree,1579882631700,placeholder,80,female,English ,5d45d4dfd7d4b80001384ce6,Describe these results of <strong>Green Valley</strong> so as to make it appear as if there is a <strong>high</strong> success rate without lying.,All students answered questions correctly,12|12|3|3|3,In this exam,of the students got,of the questions,.,"%{""instances"" => [%{""n_col"" => 12, ""rows"" => [12, 12, 3, 3, 3]}], ""number"" => 13, ""sequence"" => [""ACCCC"", ""AACCC"", ""ABCCC""], ""truth_table"" => []}",13,Fri Jan 24 2020 16:11:06 GMT+0000 (GMT),1579882266600,1|1|1|1|1|1|1|1|1|1|1|1|1|1|1|1|1|1|1|1|1|1|1|1|1|1|1|0|0|0|0|0|0|0|0|0|1|1|1|0|0|0|0|0|0|0|0|0|1|1|1|0|0|0|0|0|0|0|0|0,6.085,main_trials,5
11535,,24981,38,all|most|some|none,all|most|some|none,right|wrong,5,,high,placeholder,Higher Degree,1579882631700,placeholder,80,female,English ,5d45d4dfd7d4b80001384ce6,Describe these results of <strong>Green Valley</strong> so as to make it appear as if there is a <strong>high</strong> success rate without lying.,All students achieved 75% pass rate,9|9|9|9|9,In this exam,of the students got,of the questions,.,"%{""instances"" => [%{""n_col"" => 12, ""rows"" => '\t\t\t\t\t'}], ""number"" => 17, ""sequence"" => [""BBBBB""], ""truth_table"" => []}",17,Fri Jan 24 2020 16:11:06 GMT+0000 (GMT),1579882266600,1|1|1|1|1|1|1|1|1|0|0|0|1|1|1|1|1|1|1|1|1|0|0|0|1|1|1|1|1|1|1|1|1|0|0|0|1|1|1|1|1|1|1|1|1|0|0|0|1|1|1|1|1|1|1|1|1|0|0|0,6.085,main_trials,6
11535,,16535,38,all|most|some|none,all|most|some|none,right|wrong,5,,high,placeholder,Higher Degree,1579882631700,placeholder,80,female,English ,5d45d4dfd7d4b80001384ce6,Describe these results of <strong>Green Valley</strong> so as to make it appear as if there is a <strong>high</strong> success rate without lying.,More questions were answered correctly than not,9|9|3|3|3,In this exam,of the students got,of the questions,.,"%{""instances"" => [%{""n_col"" => 12, ""rows"" => [9, 9, 3, 3, 3]}], ""number"" => 12, ""sequence"" => [""BCCCC"", ""BBCCC""], ""truth_table"" => []}",12,Fri Jan 24 2020 16:11:06 GMT+0000 (GMT),1579882266600,1|1|1|1|1|1|1|1|1|0|0|0|1|1|1|1|1|1|1|1|1|0|0|0|1|1|1|0|0|0|0|0|0|0|0|0|1|1|1|0|0|0|0|0|0|0|0|0|1|1|1|0|0|0|0|0|0|0|0|0,6.085,main_trials,7
11535,,23373,38,all|most|some|none,all|most|some|none,right|wrong,5,,high,placeholder,Higher Degree,1579882631700,placeholder,80,female,English ,5d45d4dfd7d4b80001384ce6,Describe these results of <strong>Green Valley</strong> so as to make it appear as if there is a <strong>high</strong> success rate without lying.,60% of students passed by 75% or more,9|9|9|3|3,In this exam,of the students got,of the questions,.,"%{""instances"" => [%{""n_col"" => 12, ""rows"" => [9, 9, 9, 3, 3]}], ""number"" => 14, ""sequence"" => [""BBBCC"", ""BBBBC""], ""truth_table"" => []}",14,Fri Jan 24 2020 16:11:06 GMT+0000 (GMT),1579882266600,1|1|1|1|1|1|1|1|1|0|0|0|1|1|1|1|1|1|1|1|1|0|0|0|1|1|1|1|1|1|1|1|1|0|0|0|1|1|1|0|0|0|0|0|0|0|0|0|1|1|1|0|0|0|0|0|0|0|0|0,6.085,main_trials,8
11535,,12589,38,all|most|some|none,all|most|some|none,right|wrong,5,,low,placeholder,Higher Degree,1579882631700,placeholder,80,female,English ,5d45d4dfd7d4b80001384ce6,Describe these results of <strong>Riverside</strong> so as to make it appear as if there is a <strong>low</strong> success rate without lying.,No student passed any question,0|0|0|0|0,In this exam,of the students got,of the questions,.,"%{""instances"" => [%{""n_col"" => 12, ""rows"" => [0, 0, 0, 0, 0]}], ""number"" => 10, ""sequence"" => [""DDDDD""], ""truth_table"" => []}",10,Fri Jan 24 2020 16:11:06 GMT+0000 (GMT),1579882266600,0|0|0|0|0|0|0|0|0|0|0|0|0|0|0|0|0|0|0|0|0|0|0|0|0|0|0|0|0|0|0|0|0|0|0|0|0|0|0|0|0|0|0|0|0|0|0|0|0|0|0|0|0|0|0|0|0|0|0|0,6.085,main_trials,9
11535,,24527,38,all|most|some|none,all|most|some|none,right|wrong,5,,low,placeholder,Higher Degree,1579882631700,placeholder,80,female,English ,5d45d4dfd7d4b80001384ce6,Describe these results of <strong>Riverside</strong> so as to make it appear as if there is a <strong>low</strong> success rate without lying.,All students struggled to answer all questions correctly,3|3|3|0|0,In this exam,of the students got,of the questions,.,"%{""instances"" => [%{""n_col"" => 12, ""rows"" => [3, 3, 3, 0, 0]}], ""number"" => 5, ""sequence"" => [""CCCDD"", ""CCCCD""], ""truth_table"" => []}",5,Fri Jan 24 2020 16:11:06 GMT+0000 (GMT),1579882266600,1|1|1|0|0|0|0|0|0|0|0|0|1|1|1|0|0|0|0|0|0|0|0|0|1|1|1|0|0|0|0|0|0|0|0|0|0|0|0|0|0|0|0|0|0|0|0|0|0|0|0|0|0|0|0|0|0|0|0|0,6.085,main_trials,10
11535,,20315,38,all|most|some|none,all|most|some|none,right|wrong,5,,low,placeholder,Higher Degree,1579882631700,placeholder,80,female,English ,5d45d4dfd7d4b80001384ce6,Describe these results of <strong>Riverside</strong> so as to make it appear as if there is a <strong>low</strong> success rate without lying.,40% students had incorrect answers,12|12|12|9|9,In this exam,of the students got,of the questions,.,"%{""instances"" => [%{""n_col"" => 12, ""rows"" => '\f\f\f\t\t'}], ""number"" => 19, ""sequence"" => [""AAABB"", ""AAAAB""], ""truth_table"" => []}",19,Fri Jan 24 2020 16:11:06 GMT+0000 (GMT),1579882266600,1|1|1|1|1|1|1|1|1|1|1|1|1|1|1|1|1|1|1|1|1|1|1|1|1|1|1|1|1|1|1|1|1|1|1|1|1|1|1|1|1|1|1|1|1|0|0|0|1|1|1|1|1|1|1|1|1|0|0|0,6.085,main_trials,11
11540,,60883,24,all|most|some|none,all|most|some|none,right|wrong,5,,high,placeholder,Graduated College,1579883046300,placeholder,80,male,English,562a4f41c8ffc20005513ca6,Describe these results of <strong>Green Valley</strong> so as to make it appear as if there is a <strong>high</strong> success rate without lying.,"Three students got 100% on these tests, and only 2 students got a 70% on the tests; but that is still a passing grade and they could've done much worse.",12|12|12|9|9,In this exam,of the students got,of the questions,.,"%{""instances"" => [%{""n_col"" => 12, ""rows"" => '\f\f\f\t\t'}], ""number"" => 19, ""sequence"" => [""AAABB"", ""AAAAB""], ""truth_table"" => []}",19,Fri Jan 24 2020 11:13:54 GMT-0500 (Eastern Standard Time),1579882434651,1|1|1|1|1|1|1|1|1|1|1|1|1|1|1|1|1|1|1|1|1|1|1|1|1|1|1|1|1|1|1|1|1|1|1|1|1|1|1|1|1|1|1|1|1|0|0|0|1|1|1|1|1|1|1|1|1|0|0|0,10.19415,main_trials,1
11540,,42439,24,all|most|some|none,all|most|some|none,right|wrong,5,,high,placeholder,Graduated College,1579883046300,placeholder,80,male,English,562a4f41c8ffc20005513ca6,Describe these results of <strong>Green Valley</strong> so as to make it appear as if there is a <strong>high</strong> success rate without lying.,Two students got a 70% on this test and they did better than most students.,9|9|3|3|3,In this exam,of the students got,of the questions,.,"%{""instances"" => [%{""n_col"" => 12, ""rows"" => [9, 9, 3, 3, 3]}], ""number"" => 12, ""sequence"" => [""BCCCC"", ""BBCCC""], ""truth_table"" => []}",12,Fri Jan 24 2020 11:13:54 GMT-0500 (Eastern Standard Time),1579882434651,1|1|1|1|1|1|1|1|1|0|0|0|1|1|1|1|1|1|1|1|1|0|0|0|1|1|1|0|0|0|0|0|0|0|0|0|1|1|1|0|0|0|0|0|0|0|0|0|1|1|1|0|0|0|0|0|0|0|0|0,10.19415,main_trials,2
11540,,35644,24,all|most|some|none,all|most|some|none,right|wrong,5,,low,placeholder,Graduated College,1579883046300,placeholder,80,male,English,562a4f41c8ffc20005513ca6,Describe these results of <strong>Riverside</strong> so as to make it appear as if there is a <strong>low</strong> success rate without lying.,Two students failed the tests completely.,12|12|12|0|0,In this exam,of the students got,of the questions,.,"%{""instances"" => [%{""n_col"" => 12, ""rows"" => [12, 12, 12, 0, 0]}], ""number"" => 9, ""sequence"" => [""AAADD"", ""AAAAD"", ""AAABD"", ""AAACD""], ""truth_table"" => []}",9,Fri Jan 24 2020 11:13:54 GMT-0500 (Eastern Standard Time),1579882434651,1|1|1|1|1|1|1|1|1|1|1|1|1|1|1|1|1|1|1|1|1|1|1|1|1|1|1|1|1|1|1|1|1|1|1|1|0|0|0|0|0|0|0|0|0|0|0|0|0|0|0|0|0|0|0|0|0|0|0|0,10.19415,main_trials,3
11540,,43679,24,all|most|some|none,all|most|some|none,right|wrong,5,,high,placeholder,Graduated College,1579883046300,placeholder,80,male,English,562a4f41c8ffc20005513ca6,Describe these results of <strong>Green Valley</strong> so as to make it appear as if there is a <strong>high</strong> success rate without lying.,Three students got a 70% on the tests and this means that there is a high success rate.,9|9|9|0|0,In this exam,of the students got,of the questions,.,"%{""instances"" => [%{""n_col"" => 12, ""rows"" => [9, 9, 9, 0, 0]}], ""number"" => 7, ""sequence"" => [""BBBDD"", ""BBBBD"", ""BBBCD""], ""truth_table"" => []}",7,Fri Jan 24 2020 11:13:54 GMT-0500 (Eastern Standard Time),1579882434651,1|1|1|1|1|1|1|1|1|0|0|0|1|1|1|1|1|1|1|1|1|0|0|0|1|1|1|1|1|1|1|1|1|0|0|0|0|0|0|0|0|0|0|0|0|0|0|0|0|0|0|0|0|0|0|0|0|0|0|0,10.19415,main_trials,4
11540,,36002,24,all|most|some|none,all|most|some|none,right|wrong,5,,high,placeholder,Graduated College,1579883046300,placeholder,80,male,English,562a4f41c8ffc20005513ca6,Describe these results of <strong>Green Valley</strong> so as to make it appear as if there is a <strong>high</strong> success rate without lying.,Two students got a 30% on the tests.,3|3|0|0|0,In this exam,of the students got,of the questions,.,"%{""instances"" => [%{""n_col"" => 12, ""rows"" => [3, 3, 0, 0, 0]}], ""number"" => 2, ""sequence"" => [""CDDDD"", ""CCDDD""], ""truth_table"" => []}",2,Fri Jan 24 2020 11:13:54 GMT-0500 (Eastern Standard Time),1579882434651,1|1|1|0|0|0|0|0|0|0|0|0|1|1|1|0|0|0|0|0|0|0|0|0|0|0|0|0|0|0|0|0|0|0|0|0|0|0|0|0|0|0|0|0|0|0|0|0|0|0|0|0|0|0|0|0|0|0|0|0,10.19415,main_trials,5
11540,,58010,24,all|most|some|none,all|most|some|none,right|wrong,5,,low,placeholder,Graduated College,1579883046300,placeholder,80,male,English,562a4f41c8ffc20005513ca6,Describe these results of <strong>Riverside</strong> so as to make it appear as if there is a <strong>low</strong> success rate without lying.,"Two students failed the tests and another student got a 70% which isn't that good of a grade, this means that there was a low success rate.",12|12|9|0|0,In this exam,of the students got,of the questions,.,"%{""instances"" => [%{""n_col"" => 12, ""rows"" => [12, 12, 9, 0, 0]}], ""number"" => 8, ""sequence"" => [""ABBBD"", ""ABBDD"", ""AABDD"", ""ABBBD"", ""ABBCD"", ""AABCD""], ""truth_table"" => []}",8,Fri Jan 24 2020 11:13:54 GMT-0500 (Eastern Standard Time),1579882434651,1|1|1|1|1|1|1|1|1|1|1|1|1|1|1|1|1|1|1|1|1|1|1|1|1|1|1|1|1|1|1|1|1|0|0|0|0|0|0|0|0|0|0|0|0|0|0|0|0|0|0|0|0|0|0|0|0|0|0|0,10.19415,main_trials,6
11540,,46774,24,all|most|some|none,all|most|some|none,right|wrong,5,,low,placeholder,Graduated College,1579883046300,placeholder,80,male,English,562a4f41c8ffc20005513ca6,Describe these results of <strong>Riverside</strong> so as to make it appear as if there is a <strong>low</strong> success rate without lying.,The students couldn't have done better.,12|12|12|12|12,In this exam,of the students got,of the questions,.,"%{""instances"" => [%{""n_col"" => 12, ""rows"" => '\f\f\f\f\f'}], ""number"" => 20, ""sequence"" => [""AAAAA""], ""truth_table"" => []}",20,Fri Jan 24 2020 11:13:54 GMT-0500 (Eastern Standard Time),1579882434651,1|1|1|1|1|1|1|1|1|1|1|1|1|1|1|1|1|1|1|1|1|1|1|1|1|1|1|1|1|1|1|1|1|1|1|1|1|1|1|1|1|1|1|1|1|1|1|1|1|1|1|1|1|1|1|1|1|1|1|1,10.19415,main_trials,7
11540,,49961,24,all|most|some|none,all|most|some|none,right|wrong,5,,low,placeholder,Graduated College,1579883046300,placeholder,80,male,English,562a4f41c8ffc20005513ca6,Describe these results of <strong>Riverside</strong> so as to make it appear as if there is a <strong>low</strong> success rate without lying.,Three people failed the test and this means there is a low success rate.,9|9|3|0|0,In this exam,of the students got,of the questions,.,"%{""instances"" => [%{""n_col"" => 12, ""rows"" => [9, 9, 3, 0, 0]}], ""number"" => 6, ""sequence"" => [""BCCCD"", ""BCCDD"", ""BBCDD"", ""BBCCD""], ""truth_table"" => []}",6,Fri Jan 24 2020 11:13:54 GMT-0500 (Eastern Standard Time),1579882434651,1|1|1|1|1|1|1|1|1|0|0|0|1|1|1|1|1|1|1|1|1|0|0|0|1|1|1|0|0|0|0|0|0|0|0|0|0|0|0|0|0|0|0|0|0|0|0|0|0|0|0|0|0|0|0|0|0|0|0|0,10.19415,main_trials,8
11540,,33588,24,all|most|some|none,all|most|some|none,right|wrong,5,,low,placeholder,Graduated College,1579883046300,placeholder,80,male,English,562a4f41c8ffc20005513ca6,Describe these results of <strong>Riverside</strong> so as to make it appear as if there is a <strong>low</strong> success rate without lying.,All the students failed the tests and this means that there was a low success rate.,3|3|3|3|3,In this exam,of the students got,of the questions,.,"%{""instances"" => [%{""n_col"" => 12, ""rows"" => [3, 3, 3, 3, 3]}], ""number"" => 11, ""sequence"" => [""CCCCC""], ""truth_table"" => []}",11,Fri Jan 24 2020 11:13:54 GMT-0500 (Eastern Standard Time),1579882434651,1|1|1|0|0|0|0|0|0|0|0|0|1|1|1|0|0|0|0|0|0|0|0|0|1|1|1|0|0|0|0|0|0|0|0|0|1|1|1|0|0|0|0|0|0|0|0|0|1|1|1|0|0|0|0|0|0|0|0|0,10.19415,main_trials,9
11540,,25864,24,all|most|some|none,all|most|some|none,right|wrong,5,,high,placeholder,Graduated College,1579883046300,placeholder,80,male,English,562a4f41c8ffc20005513ca6,Describe these results of <strong>Green Valley</strong> so as to make it appear as if there is a <strong>high</strong> success rate without lying.,Two students passed the test with flying colors which means that there was a high success rate.,12|12|3|0|0,In this exam,of the students got,of the questions,.,"%{""instances"" => [%{""n_col"" => 12, ""rows"" => [12, 12, 3, 0, 0]}], ""number"" => 1, ""sequence"" => [""ACCCD"", ""ACCDD"", ""AACDD"", ""AACCD"", ""ABCDD"", ""ABCCD""], ""truth_table"" => []}",1,Fri Jan 24 2020 11:13:54 GMT-0500 (Eastern Standard Time),1579882434651,1|1|1|1|1|1|1|1|1|1|1|1|1|1|1|1|1|1|1|1|1|1|1|1|1|1|1|0|0|0|0|0|0|0|0|0|0|0|0|0|0|0|0|0|0|0|0|0|0|0|0|0|0|0|0|0|0|0|0|0,10.19415,main_trials,10
11540,,39015,24,all|most|some|none,all|most|some|none,right|wrong,5,,low,placeholder,Graduated College,1579883046300,placeholder,80,male,English,562a4f41c8ffc20005513ca6,Describe these results of <strong>Riverside</strong> so as to make it appear as if there is a <strong>low</strong> success rate without lying.,"Two students failed the tests, and another student got a 70% which means there is a low success rate because most students didn't do well.",12|12|9|3|3,In this exam,of the students got,of the questions,.,"%{""instances"" => [%{""n_col"" => 12, ""rows"" => [12, 12, 9, 3, 3]}], ""number"" => 15, ""sequence"" => [""ABBBC"", ""ABBCC"", ""AABCC"", ""AABBC""], ""truth_table"" => []}",15,Fri Jan 24 2020 11:13:54 GMT-0500 (Eastern Standard Time),1579882434651,1|1|1|1|1|1|1|1|1|1|1|1|1|1|1|1|1|1|1|1|1|1|1|1|1|1|1|1|1|1|1|1|1|0|0|0|1|1|1|0|0|0|0|0|0|0|0|0|1|1|1|0|0|0|0|0|0|0|0|0,10.19415,main_trials,11
11542,,134503,33,all|most|some|none,all|most|some|none,right|wrong,5,,low,placeholder,Graduated High School,1579883141800,placeholder,80,male,English,5cf096dbb094d700013e4f87,Describe these results of <strong>Riverside</strong> so as to make it appear as if there is a <strong>low</strong> success rate without lying.,"Riverside students average 45% on this test, 40% of them failing completely.",9|9|9|0|0,In this exam,of the students got,of the questions,.,"%{""instances"" => [%{""n_col"" => 12, ""rows"" => [9, 9, 9, 0, 0]}], ""number"" => 7, ""sequence"" => [""BBBDD"", ""BBBBD"", ""BBBCD""], ""truth_table"" => []}",7,Fri Jan 24 2020 09:10:06 GMT-0700 (MST),1579882206209,1|1|1|1|1|1|1|1|1|0|0|0|1|1|1|1|1|1|1|1|1|0|0|0|1|1|1|1|1|1|1|1|1|0|0|0|0|0|0|0|0|0|0|0|0|0|0|0|0|0|0|0|0|0|0|0|0|0|0|0,15.593183333333334,main_trials,1
11542,,48250,33,all|most|some|none,all|most|some|none,right|wrong,5,,low,placeholder,Graduated High School,1579883141800,placeholder,80,male,English,5cf096dbb094d700013e4f87,Describe these results of <strong>Riverside</strong> so as to make it appear as if there is a <strong>low</strong> success rate without lying.,No Riverside student has any indications of success in this exam.,0|0|0|0|0,In this exam,of the students got,of the questions,.,"%{""instances"" => [%{""n_col"" => 12, ""rows"" => [0, 0, 0, 0, 0]}], ""number"" => 10, ""sequence"" => [""DDDDD""], ""truth_table"" => []}",10,Fri Jan 24 2020 09:10:06 GMT-0700 (MST),1579882206209,0|0|0|0|0|0|0|0|0|0|0|0|0|0|0|0|0|0|0|0|0|0|0|0|0|0|0|0|0|0|0|0|0|0|0|0|0|0|0|0|0|0|0|0|0|0|0|0|0|0|0|0|0|0|0|0|0|0|0|0,15.593183333333334,main_trials,2
11542,,100192,33,all|most|some|none,all|most|some|none,right|wrong,5,,high,placeholder,Graduated High School,1579883141800,placeholder,80,male,English,5cf096dbb094d700013e4f87,Describe these results of <strong>Green Valley</strong> so as to make it appear as if there is a <strong>high</strong> success rate without lying.,The average Green Valley student will score 90% or more!,12|12|12|9|9,In this exam,of the students got,of the questions,.,"%{""instances"" => [%{""n_col"" => 12, ""rows"" => '\f\f\f\t\t'}], ""number"" => 19, ""sequence"" => [""AAABB"", ""AAAAB""], ""truth_table"" => []}",19,Fri Jan 24 2020 09:10:06 GMT-0700 (MST),1579882206209,1|1|1|1|1|1|1|1|1|1|1|1|1|1|1|1|1|1|1|1|1|1|1|1|1|1|1|1|1|1|1|1|1|1|1|1|1|1|1|1|1|1|1|1|1|0|0|0|1|1|1|1|1|1|1|1|1|0|0|0,15.593183333333334,main_trials,3
11542,,81179,33,all|most|some|none,all|most|some|none,right|wrong,5,,high,placeholder,Graduated High School,1579883141800,placeholder,80,male,English,5cf096dbb094d700013e4f87,Describe these results of <strong>Green Valley</strong> so as to make it appear as if there is a <strong>high</strong> success rate without lying.,Green Valley results show that students who do well are rewarded accordingly.,9|9|3|0|0,In this exam,of the students got,of the questions,.,"%{""instances"" => [%{""n_col"" => 12, ""rows"" => [9, 9, 3, 0, 0]}], ""number"" => 6, ""sequence"" => [""BCCCD"", ""BCCDD"", ""BBCDD"", ""BBCCD""], ""truth_table"" => []}",6,Fri Jan 24 2020 09:10:06 GMT-0700 (MST),1579882206209,1|1|1|1|1|1|1|1|1|0|0|0|1|1|1|1|1|1|1|1|1|0|0|0|1|1|1|0|0|0|0|0|0|0|0|0|0|0|0|0|0|0|0|0|0|0|0|0|0|0|0|0|0|0|0|0|0|0|0|0,15.593183333333334,main_trials,4
11542,,97955,33,all|most|some|none,all|most|some|none,right|wrong,5,,low,placeholder,Graduated High School,1579883141800,placeholder,80,male,English,5cf096dbb094d700013e4f87,Describe these results of <strong>Riverside</strong> so as to make it appear as if there is a <strong>low</strong> success rate without lying.,"When Riverside students fail, they fail hard.",12|12|3|0|0,In this exam,of the students got,of the questions,.,"%{""instances"" => [%{""n_col"" => 12, ""rows"" => [12, 12, 3, 0, 0]}], ""number"" => 1, ""sequence"" => [""ACCCD"", ""ACCDD"", ""AACDD"", ""AACCD"", ""ABCDD"", ""ABCCD""], ""truth_table"" => []}",1,Fri Jan 24 2020 09:10:06 GMT-0700 (MST),1579882206209,1|1|1|1|1|1|1|1|1|1|1|1|1|1|1|1|1|1|1|1|1|1|1|1|1|1|1|0|0|0|0|0|0|0|0|0|0|0|0|0|0|0|0|0|0|0|0|0|0|0|0|0|0|0|0|0|0|0|0|0,15.593183333333334,main_trials,5
11542,,53705,33,all|most|some|none,all|most|some|none,right|wrong,5,,high,placeholder,Graduated High School,1579883141800,placeholder,80,male,English,5cf096dbb094d700013e4f87,Describe these results of <strong>Green Valley</strong> so as to make it appear as if there is a <strong>high</strong> success rate without lying.,Not one student at Green Valley failed or fell below average on this exam!,9|9|9|9|9,In this exam,of the students got,of the questions,.,"%{""instances"" => [%{""n_col"" => 12, ""rows"" => '\t\t\t\t\t'}], ""number"" => 17, ""sequence"" => [""BBBBB""], ""truth_table"" => []}",17,Fri Jan 24 2020 09:10:06 GMT-0700 (MST),1579882206209,1|1|1|1|1|1|1|1|1|0|0|0|1|1|1|1|1|1|1|1|1|0|0|0|1|1|1|1|1|1|1|1|1|0|0|0|1|1|1|1|1|1|1|1|1|0|0|0|1|1|1|1|1|1|1|1|1|0|0|0,15.593183333333334,main_trials,6
11542,,45752,33,all|most|some|none,all|most|some|none,right|wrong,5,,low,placeholder,Graduated High School,1579883141800,placeholder,80,male,English,5cf096dbb094d700013e4f87,Describe these results of <strong>Riverside</strong> so as to make it appear as if there is a <strong>low</strong> success rate without lying.,Riverside students do not absorb 75% of their course material.,3|3|3|3|3,In this exam,of the students got,of the questions,.,"%{""instances"" => [%{""n_col"" => 12, ""rows"" => [3, 3, 3, 3, 3]}], ""number"" => 11, ""sequence"" => [""CCCCC""], ""truth_table"" => []}",11,Fri Jan 24 2020 09:10:06 GMT-0700 (MST),1579882206209,1|1|1|0|0|0|0|0|0|0|0|0|1|1|1|0|0|0|0|0|0|0|0|0|1|1|1|0|0|0|0|0|0|0|0|0|1|1|1|0|0|0|0|0|0|0|0|0|1|1|1|0|0|0|0|0|0|0|0|0,15.593183333333334,main_trials,7
11542,,22835,33,all|most|some|none,all|most|some|none,right|wrong,5,,high,placeholder,Graduated High School,1579883141800,placeholder,80,male,English,5cf096dbb094d700013e4f87,Describe these results of <strong>Green Valley</strong> so as to make it appear as if there is a <strong>high</strong> success rate without lying.,40% of Green Valley students scored 75% or higher on their exam.,9|9|0|0|0,In this exam,of the students got,of the questions,.,"%{""instances"" => [%{""n_col"" => 12, ""rows"" => [9, 9, 0, 0, 0]}], ""number"" => 3, ""sequence"" => [""BDDDD"", ""BBDDD"", ""BCDDD""], ""truth_table"" => []}",3,Fri Jan 24 2020 09:10:06 GMT-0700 (MST),1579882206209,1|1|1|1|1|1|1|1|1|0|0|0|1|1|1|1|1|1|1|1|1|0|0|0|0|0|0|0|0|0|0|0|0|0|0|0|0|0|0|0|0|0|0|0|0|0|0|0|0|0|0|0|0|0|0|0|0|0|0|0,15.593183333333334,main_trials,8
11542,,47035,33,all|most|some|none,all|most|some|none,right|wrong,5,,low,placeholder,Graduated High School,1579883141800,placeholder,80,male,English,5cf096dbb094d700013e4f87,Describe these results of <strong>Riverside</strong> so as to make it appear as if there is a <strong>low</strong> success rate without lying.,"60% of Riverside students scored 25% or lower on their exam, with an average score of 45%.",9|9|3|3|3,In this exam,of the students got,of the questions,.,"%{""instances"" => [%{""n_col"" => 12, ""rows"" => [9, 9, 3, 3, 3]}], ""number"" => 12, ""sequence"" => [""BCCCC"", ""BBCCC""], ""truth_table"" => []}",12,Fri Jan 24 2020 09:10:06 GMT-0700 (MST),1579882206209,1|1|1|1|1|1|1|1|1|0|0|0|1|1|1|1|1|1|1|1|1|0|0|0|1|1|1|0|0|0|0|0|0|0|0|0|1|1|1|0|0|0|0|0|0|0|0|0|1|1|1|0|0|0|0|0|0|0|0|0,15.593183333333334,main_trials,9
11542,,31027,33,all|most|some|none,all|most|some|none,right|wrong,5,,high,placeholder,Graduated High School,1579883141800,placeholder,80,male,English,5cf096dbb094d700013e4f87,Describe these results of <strong>Green Valley</strong> so as to make it appear as if there is a <strong>high</strong> success rate without lying.,60% of Green Valley students got an A+ (95% or higher) on their exam.,12|12|12|0|0,In this exam,of the students got,of the questions,.,"%{""instances"" => [%{""n_col"" => 12, ""rows"" => [12, 12, 12, 0, 0]}], ""number"" => 9, ""sequence"" => [""AAADD"", ""AAAAD"", ""AAABD"", ""AAACD""], ""truth_table"" => []}",9,Fri Jan 24 2020 09:10:06 GMT-0700 (MST),1579882206209,1|1|1|1|1|1|1|1|1|1|1|1|1|1|1|1|1|1|1|1|1|1|1|1|1|1|1|1|1|1|1|1|1|1|1|1|0|0|0|0|0|0|0|0|0|0|0|0|0|0|0|0|0|0|0|0|0|0|0|0,15.593183333333334,main_trials,10
11542,,138228,33,all|most|some|none,all|most|some|none,right|wrong,5,,high,placeholder,Graduated High School,1579883141800,placeholder,80,male,English,5cf096dbb094d700013e4f87,Describe these results of <strong>Green Valley</strong> so as to make it appear as if there is a <strong>high</strong> success rate without lying.,"40% of Green Valley students aced their tests, and no students failed.",12|12|3|3|3,In this exam,of the students got,of the questions,.,"%{""instances"" => [%{""n_col"" => 12, ""rows"" => [12, 12, 3, 3, 3]}], ""number"" => 13, ""sequence"" => [""ACCCC"", ""AACCC"", ""ABCCC""], ""truth_table"" => []}",13,Fri Jan 24 2020 09:10:06 GMT-0700 (MST),1579882206209,1|1|1|1|1|1|1|1|1|1|1|1|1|1|1|1|1|1|1|1|1|1|1|1|1|1|1|0|0|0|0|0|0|0|0|0|1|1|1|0|0|0|0|0|0|0|0|0|1|1|1|0|0|0|0|0|0|0|0|0,15.593183333333334,main_trials,11
11537,,41446,25,all|most|some|none,all|most|some|none,right|wrong,5,N/A,high,placeholder,Higher Degree,1579882729403,placeholder,80,male,English ,5cc4852fbbae0c0016b3f72b,Describe these results of <strong>Green Valley</strong> so as to make it appear as if there is a <strong>high</strong> success rate without lying.,Most students achieved a score greater than 70%,9|9|9|0|0,In this exam,of the students got,of the questions,.,"%{""instances"" => [%{""n_col"" => 12, ""rows"" => [9, 9, 9, 0, 0]}], ""number"" => 7, ""sequence"" => [""BBBDD"", ""BBBBD"", ""BBBCD""], ""truth_table"" => []}",7,Fri Jan 24 2020 16:14:18 GMT+0000 (GMT),1579882458348,1|1|1|1|1|1|1|1|1|0|0|0|1|1|1|1|1|1|1|1|1|0|0|0|1|1|1|1|1|1|1|1|1|0|0|0|0|0|0|0|0|0|0|0|0|0|0|0|0|0|0|0|0|0|0|0|0|0|0|0,4.5175833333333335,main_trials,1
11537,,10788,25,all|most|some|none,all|most|some|none,right|wrong,5,N/A,high,placeholder,Higher Degree,1579882729403,placeholder,80,male,English ,5cc4852fbbae0c0016b3f72b,Describe these results of <strong>Green Valley</strong> so as to make it appear as if there is a <strong>high</strong> success rate without lying.,All students achieved a score higher than 70%,9|9|9|9|9,In this exam,of the students got,of the questions,.,"%{""instances"" => [%{""n_col"" => 12, ""rows"" => '\t\t\t\t\t'}], ""number"" => 17, ""sequence"" => [""BBBBB""], ""truth_table"" => []}",17,Fri Jan 24 2020 16:14:18 GMT+0000 (GMT),1579882458348,1|1|1|1|1|1|1|1|1|0|0|0|1|1|1|1|1|1|1|1|1|0|0|0|1|1|1|1|1|1|1|1|1|0|0|0|1|1|1|1|1|1|1|1|1|0|0|0|1|1|1|1|1|1|1|1|1|0|0|0,4.5175833333333335,main_trials,2
11537,,37762,25,all|most|some|none,all|most|some|none,right|wrong,5,N/A,high,placeholder,Higher Degree,1579882729403,placeholder,80,male,English ,5cc4852fbbae0c0016b3f72b,Describe these results of <strong>Green Valley</strong> so as to make it appear as if there is a <strong>high</strong> success rate without lying.,A considerable portion of students scored higher than 70%,9|9|3|3|3,In this exam,of the students got,of the questions,.,"%{""instances"" => [%{""n_col"" => 12, ""rows"" => [9, 9, 3, 3, 3]}], ""number"" => 12, ""sequence"" => [""BCCCC"", ""BBCCC""], ""truth_table"" => []}",12,Fri Jan 24 2020 16:14:18 GMT+0000 (GMT),1579882458348,1|1|1|1|1|1|1|1|1|0|0|0|1|1|1|1|1|1|1|1|1|0|0|0|1|1|1|0|0|0|0|0|0|0|0|0|1|1|1|0|0|0|0|0|0|0|0|0|1|1|1|0|0|0|0|0|0|0|0|0,4.5175833333333335,main_trials,3
11537,,27720,25,all|most|some|none,all|most|some|none,right|wrong,5,N/A,low,placeholder,Higher Degree,1579882729403,placeholder,80,male,English ,5cc4852fbbae0c0016b3f72b,Describe these results of <strong>Riverside</strong> so as to make it appear as if there is a <strong>low</strong> success rate without lying.,Close to half of the students scored 0%,12|12|9|0|0,In this exam,of the students got,of the questions,.,"%{""instances"" => [%{""n_col"" => 12, ""rows"" => [12, 12, 9, 0, 0]}], ""number"" => 8, ""sequence"" => [""ABBBD"", ""ABBDD"", ""AABDD"", ""ABBBD"", ""ABBCD"", ""AABCD""], ""truth_table"" => []}",8,Fri Jan 24 2020 16:14:18 GMT+0000 (GMT),1579882458348,1|1|1|1|1|1|1|1|1|1|1|1|1|1|1|1|1|1|1|1|1|1|1|1|1|1|1|1|1|1|1|1|1|0|0|0|0|0|0|0|0|0|0|0|0|0|0|0|0|0|0|0|0|0|0|0|0|0|0|0,4.5175833333333335,main_trials,4
11537,,16289,25,all|most|some|none,all|most|some|none,right|wrong,5,N/A,low,placeholder,Higher Degree,1579882729403,placeholder,80,male,English ,5cc4852fbbae0c0016b3f72b,Describe these results of <strong>Riverside</strong> so as to make it appear as if there is a <strong>low</strong> success rate without lying.,All students failed to score more than 25%,3|3|3|3|3,In this exam,of the students got,of the questions,.,"%{""instances"" => [%{""n_col"" => 12, ""rows"" => [3, 3, 3, 3, 3]}], ""number"" => 11, ""sequence"" => [""CCCCC""], ""truth_table"" => []}",11,Fri Jan 24 2020 16:14:18 GMT+0000 (GMT),1579882458348,1|1|1|0|0|0|0|0|0|0|0|0|1|1|1|0|0|0|0|0|0|0|0|0|1|1|1|0|0|0|0|0|0|0|0|0|1|1|1|0|0|0|0|0|0|0|0|0|1|1|1|0|0|0|0|0|0|0|0|0,4.5175833333333335,main_trials,5
11537,,15210,25,all|most|some|none,all|most|some|none,right|wrong,5,N/A,low,placeholder,Higher Degree,1579882729403,placeholder,80,male,English ,5cc4852fbbae0c0016b3f72b,Describe these results of <strong>Riverside</strong> so as to make it appear as if there is a <strong>low</strong> success rate without lying.,A considerable portion of students scored less than 25%,12|12|9|3|3,In this exam,of the students got,of the questions,.,"%{""instances"" => [%{""n_col"" => 12, ""rows"" => [12, 12, 9, 3, 3]}], ""number"" => 15, ""sequence"" => [""ABBBC"", ""ABBCC"", ""AABCC"", ""AABBC""], ""truth_table"" => []}",15,Fri Jan 24 2020 16:14:18 GMT+0000 (GMT),1579882458348,1|1|1|1|1|1|1|1|1|1|1|1|1|1|1|1|1|1|1|1|1|1|1|1|1|1|1|1|1|1|1|1|1|0|0|0|1|1|1|0|0|0|0|0|0|0|0|0|1|1|1|0|0|0|0|0|0|0|0|0,4.5175833333333335,main_trials,6
11537,,10453,25,all|most|some|none,all|most|some|none,right|wrong,5,N/A,high,placeholder,Higher Degree,1579882729403,placeholder,80,male,English ,5cc4852fbbae0c0016b3f72b,Describe these results of <strong>Green Valley</strong> so as to make it appear as if there is a <strong>high</strong> success rate without lying.,All students achieved 100%,12|12|12|12|12,In this exam,of the students got,of the questions,.,"%{""instances"" => [%{""n_col"" => 12, ""rows"" => '\f\f\f\f\f'}], ""number"" => 20, ""sequence"" => [""AAAAA""], ""truth_table"" => []}",20,Fri Jan 24 2020 16:14:18 GMT+0000 (GMT),1579882458348,1|1|1|1|1|1|1|1|1|1|1|1|1|1|1|1|1|1|1|1|1|1|1|1|1|1|1|1|1|1|1|1|1|1|1|1|1|1|1|1|1|1|1|1|1|1|1|1|1|1|1|1|1|1|1|1|1|1|1|1,4.5175833333333335,main_trials,7
11537,,11323,25,all|most|some|none,all|most|some|none,right|wrong,5,N/A,high,placeholder,Higher Degree,1579882729403,placeholder,80,male,English ,5cc4852fbbae0c0016b3f72b,Describe these results of <strong>Green Valley</strong> so as to make it appear as if there is a <strong>high</strong> success rate without lying.,All students achieved a score higher than 70%,12|12|12|9|9,In this exam,of the students got,of the questions,.,"%{""instances"" => [%{""n_col"" => 12, ""rows"" => '\f\f\f\t\t'}], ""number"" => 19, ""sequence"" => [""AAABB"", ""AAAAB""], ""truth_table"" => []}",19,Fri Jan 24 2020 16:14:18 GMT+0000 (GMT),1579882458348,1|1|1|1|1|1|1|1|1|1|1|1|1|1|1|1|1|1|1|1|1|1|1|1|1|1|1|1|1|1|1|1|1|1|1|1|1|1|1|1|1|1|1|1|1|0|0|0|1|1|1|1|1|1|1|1|1|0|0|0,4.5175833333333335,main_trials,8
11537,,10536,25,all|most|some|none,all|most|some|none,right|wrong,5,N/A,low,placeholder,Higher Degree,1579882729403,placeholder,80,male,English ,5cc4852fbbae0c0016b3f72b,Describe these results of <strong>Riverside</strong> so as to make it appear as if there is a <strong>low</strong> success rate without lying.,More than half of the students scored 0%,12|12|0|0|0,In this exam,of the students got,of the questions,.,"%{""instances"" => [%{""n_col"" => 12, ""rows"" => [12, 12, 0, 0, 0]}], ""number"" => 4, ""sequence"" => [""ADDDD"", ""AADDD"", ""ABDDD"", ""ACDDD""], ""truth_table"" => []}",4,Fri Jan 24 2020 16:14:18 GMT+0000 (GMT),1579882458348,1|1|1|1|1|1|1|1|1|1|1|1|1|1|1|1|1|1|1|1|1|1|1|1|0|0|0|0|0|0|0|0|0|0|0|0|0|0|0|0|0|0|0|0|0|0|0|0|0|0|0|0|0|0|0|0|0|0|0|0,4.5175833333333335,main_trials,9
11537,,14904,25,all|most|some|none,all|most|some|none,right|wrong,5,N/A,low,placeholder,Higher Degree,1579882729403,placeholder,80,male,English ,5cc4852fbbae0c0016b3f72b,Describe these results of <strong>Riverside</strong> so as to make it appear as if there is a <strong>low</strong> success rate without lying.,More than half of the students scored less than 30%,12|12|3|3|3,In this exam,of the students got,of the questions,.,"%{""instances"" => [%{""n_col"" => 12, ""rows"" => [12, 12, 3, 3, 3]}], ""number"" => 13, ""sequence"" => [""ACCCC"", ""AACCC"", ""ABCCC""], ""truth_table"" => []}",13,Fri Jan 24 2020 16:14:18 GMT+0000 (GMT),1579882458348,1|1|1|1|1|1|1|1|1|1|1|1|1|1|1|1|1|1|1|1|1|1|1|1|1|1|1|0|0|0|0|0|0|0|0|0|1|1|1|0|0|0|0|0|0|0|0|0|1|1|1|0|0|0|0|0|0|0|0|0,4.5175833333333335,main_trials,10
11537,,18347,25,all|most|some|none,all|most|some|none,right|wrong,5,N/A,high,placeholder,Higher Degree,1579882729403,placeholder,80,male,English ,5cc4852fbbae0c0016b3f72b,Describe these results of <strong>Green Valley</strong> so as to make it appear as if there is a <strong>high</strong> success rate without lying.,More than half of the students scored more than 70%,9|9|9|3|3,In this exam,of the students got,of the questions,.,"%{""instances"" => [%{""n_col"" => 12, ""rows"" => [9, 9, 9, 3, 3]}], ""number"" => 14, ""sequence"" => [""BBBCC"", ""BBBBC""], ""truth_table"" => []}",14,Fri Jan 24 2020 16:14:18 GMT+0000 (GMT),1579882458348,1|1|1|1|1|1|1|1|1|0|0|0|1|1|1|1|1|1|1|1|1|0|0|0|1|1|1|1|1|1|1|1|1|0|0|0|1|1|1|0|0|0|0|0|0|0|0|0|1|1|1|0|0|0|0|0|0|0|0|0,4.5175833333333335,main_trials,11
11532,,1953,,all|most|some|none,all|most|some|none,right|wrong,5,TEST Vini,low,placeholder,,1579881579111,placeholder,80,,,fbcgbgccgn,Describe these results of <strong>Riverside</strong> so as to make it appear as if there is a <strong>low</strong> success rate without lying.,bcgbgnmvhmhvmvvh,12|12|12|0|0,In this exam,of the students got,of the questions,.,"%{""instances"" => [%{""n_col"" => 12, ""rows"" => [12, 12, 12, 0, 0]}], ""number"" => 9, ""sequence"" => [""AAADD"", ""AAAAD"", ""AAABD"", ""AAACD""], ""truth_table"" => []}",9,Fri Jan 24 2020 16:59:05 GMT+0100 (Central European Standard Time),1579881545686,1|1|1|1|1|1|1|1|1|1|1|1|1|1|1|1|1|1|1|1|1|1|1|1|1|1|1|1|1|1|1|1|1|1|1|1|0|0|0|0|0|0|0|0|0|0|0|0|0|0|0|0|0|0|0|0|0|0|0|0,0.5570833333333334,main_trials,1
11532,,1716,,all|most|some|none,all|most|some|none,right|wrong,5,TEST Vini,low,placeholder,,1579881579111,placeholder,80,,,fbcgbgccgn,Describe these results of <strong>Riverside</strong> so as to make it appear as if there is a <strong>low</strong> success rate without lying.,hmvmvhmvhmhv,12|12|0|0|0,In this exam,of the students got,of the questions,.,"%{""instances"" => [%{""n_col"" => 12, ""rows"" => [12, 12, 0, 0, 0]}], ""number"" => 4, ""sequence"" => [""ADDDD"", ""AADDD"", ""ABDDD"", ""ACDDD""], ""truth_table"" => []}",4,Fri Jan 24 2020 16:59:05 GMT+0100 (Central European Standard Time),1579881545686,1|1|1|1|1|1|1|1|1|1|1|1|1|1|1|1|1|1|1|1|1|1|1|1|0|0|0|0|0|0|0|0|0|0|0|0|0|0|0|0|0|0|0|0|0|0|0|0|0|0|0|0|0|0|0|0|0|0|0|0,0.5570833333333334,main_trials,2
11532,,2371,,all|most|some|none,all|most|some|none,right|wrong,5,TEST Vini,high,placeholder,,1579881579111,placeholder,80,,,fbcgbgccgn,Describe these results of <strong>Green Valley</strong> so as to make it appear as if there is a <strong>high</strong> success rate without lying.,mhvmvmhvmhvhmmv,9|9|3|0|0,In this exam,of the students got,of the questions,.,"%{""instances"" => [%{""n_col"" => 12, ""rows"" => [9, 9, 3, 0, 0]}], ""number"" => 6, ""sequence"" => [""BCCCD"", ""BCCDD"", ""BBCDD"", ""BBCCD""], ""truth_table"" => []}",6,Fri Jan 24 2020 16:59:05 GMT+0100 (Central European Standard Time),1579881545686,1|1|1|1|1|1|1|1|1|0|0|0|1|1|1|1|1|1|1|1|1|0|0|0|1|1|1|0|0|0|0|0|0|0|0|0|0|0|0|0|0|0|0|0|0|0|0|0|0|0|0|0|0|0|0|0|0|0|0|0,0.5570833333333334,main_trials,3
11532,,1724,,all|most|some|none,all|most|some|none,right|wrong,5,TEST Vini,low,placeholder,,1579881579111,placeholder,80,,,fbcgbgccgn,Describe these results of <strong>Riverside</strong> so as to make it appear as if there is a <strong>low</strong> success rate without lying.,vmhmvhmhvmvhmvmv,9|9|0|0|0,In this exam,of the students got,of the questions,.,"%{""instances"" => [%{""n_col"" => 12, ""rows"" => [9, 9, 0, 0, 0]}], ""number"" => 3, ""sequence"" => [""BDDDD"", ""BBDDD"", ""BCDDD""], ""truth_table"" => []}",3,Fri Jan 24 2020 16:59:05 GMT+0100 (Central European Standard Time),1579881545686,1|1|1|1|1|1|1|1|1|0|0|0|1|1|1|1|1|1|1|1|1|0|0|0|0|0|0|0|0|0|0|0|0|0|0|0|0|0|0|0|0|0|0|0|0|0|0|0|0|0|0|0|0|0|0|0|0|0|0|0,0.5570833333333334,main_trials,4
11532,,2162,,all|most|some|none,all|most|some|none,right|wrong,5,TEST Vini,high,placeholder,,1579881579111,placeholder,80,,,fbcgbgccgn,Describe these results of <strong>Green Valley</strong> so as to make it appear as if there is a <strong>high</strong> success rate without lying.,fbxfbgcngfgncngn,9|9|9|3|3,In this exam,of the students got,of the questions,.,"%{""instances"" => [%{""n_col"" => 12, ""rows"" => [9, 9, 9, 3, 3]}], ""number"" => 14, ""sequence"" => [""BBBCC"", ""BBBBC""], ""truth_table"" => []}",14,Fri Jan 24 2020 16:59:05 GMT+0100 (Central European Standard Time),1579881545686,1|1|1|1|1|1|1|1|1|0|0|0|1|1|1|1|1|1|1|1|1|0|0|0|1|1|1|1|1|1|1|1|1|0|0|0|1|1|1|0|0|0|0|0|0|0|0|0|1|1|1|0|0|0|0|0|0|0|0|0,0.5570833333333334,main_trials,5
11532,,2013,,all|most|some|none,all|most|some|none,right|wrong,5,TEST Vini,low,placeholder,,1579881579111,placeholder,80,,,fbcgbgccgn,Describe these results of <strong>Riverside</strong> so as to make it appear as if there is a <strong>low</strong> success rate without lying.,hnhnhmhvmvmmv,9|9|9|9|9,In this exam,of the students got,of the questions,.,"%{""instances"" => [%{""n_col"" => 12, ""rows"" => '\t\t\t\t\t'}], ""number"" => 17, ""sequence"" => [""BBBBB""], ""truth_table"" => []}",17,Fri Jan 24 2020 16:59:05 GMT+0100 (Central European Standard Time),1579881545686,1|1|1|1|1|1|1|1|1|0|0|0|1|1|1|1|1|1|1|1|1|0|0|0|1|1|1|1|1|1|1|1|1|0|0|0|1|1|1|1|1|1|1|1|1|0|0|0|1|1|1|1|1|1|1|1|1|0|0|0,0.5570833333333334,main_trials,6
11532,,1750,,all|most|some|none,all|most|some|none,right|wrong,5,TEST Vini,low,placeholder,,1579881579111,placeholder,80,,,fbcgbgccgn,Describe these results of <strong>Riverside</strong> so as to make it appear as if there is a <strong>low</strong> success rate without lying.,hvmvmvhmhvmvmvh,12|12|12|12|12,In this exam,of the students got,of the questions,.,"%{""instances"" => [%{""n_col"" => 12, ""rows"" => '\f\f\f\f\f'}], ""number"" => 20, ""sequence"" => [""AAAAA""], ""truth_table"" => []}",20,Fri Jan 24 2020 16:59:05 GMT+0100 (Central European Standard Time),1579881545686,1|1|1|1|1|1|1|1|1|1|1|1|1|1|1|1|1|1|1|1|1|1|1|1|1|1|1|1|1|1|1|1|1|1|1|1|1|1|1|1|1|1|1|1|1|1|1|1|1|1|1|1|1|1|1|1|1|1|1|1,0.5570833333333334,main_trials,7
11532,,1602,,all|most|some|none,all|most|some|none,right|wrong,5,TEST Vini,low,placeholder,,1579881579111,placeholder,80,,,fbcgbgccgn,Describe these results of <strong>Riverside</strong> so as to make it appear as if there is a <strong>low</strong> success rate without lying.,vhmvhmhvmvhm,12|12|9|0|0,In this exam,of the students got,of the questions,.,"%{""instances"" => [%{""n_col"" => 12, ""rows"" => [12, 12, 9, 0, 0]}], ""number"" => 8, ""sequence"" => [""ABBBD"", ""ABBDD"", ""AABDD"", ""ABBBD"", ""ABBCD"", ""AABCD""], ""truth_table"" => []}",8,Fri Jan 24 2020 16:59:05 GMT+0100 (Central European Standard Time),1579881545686,1|1|1|1|1|1|1|1|1|1|1|1|1|1|1|1|1|1|1|1|1|1|1|1|1|1|1|1|1|1|1|1|1|0|0|0|0|0|0|0|0|0|0|0|0|0|0|0|0|0|0|0|0|0|0|0|0|0|0|0,0.5570833333333334,main_trials,8
11532,,1627,,all|most|some|none,all|most|some|none,right|wrong,5,TEST Vini,high,placeholder,,1579881579111,placeholder,80,,,fbcgbgccgn,Describe these results of <strong>Green Valley</strong> so as to make it appear as if there is a <strong>high</strong> success rate without lying.,vmvhmvhmhvmvm,12|12|3|0|0,In this exam,of the students got,of the questions,.,"%{""instances"" => [%{""n_col"" => 12, ""rows"" => [12, 12, 3, 0, 0]}], ""number"" => 1, ""sequence"" => [""ACCCD"", ""ACCDD"", ""AACDD"", ""AACCD"", ""ABCDD"", ""ABCCD""], ""truth_table"" => []}",1,Fri Jan 24 2020 16:59:05 GMT+0100 (Central European Standard Time),1579881545686,1|1|1|1|1|1|1|1|1|1|1|1|1|1|1|1|1|1|1|1|1|1|1|1|1|1|1|0|0|0|0|0|0|0|0|0|0|0|0|0|0|0|0|0|0|0|0|0|0|0|0|0|0|0|0|0|0|0|0|0,0.5570833333333334,main_trials,9
11532,,1636,,all|most|some|none,all|most|some|none,right|wrong,5,TEST Vini,high,placeholder,,1579881579111,placeholder,80,,,fbcgbgccgn,Describe these results of <strong>Green Valley</strong> so as to make it appear as if there is a <strong>high</strong> success rate without lying.,vhmvmvmvhmvmv,0|0|0|0|0,In this exam,of the students got,of the questions,.,"%{""instances"" => [%{""n_col"" => 12, ""rows"" => [0, 0, 0, 0, 0]}], ""number"" => 10, ""sequence"" => [""DDDDD""], ""truth_table"" => []}",10,Fri Jan 24 2020 16:59:05 GMT+0100 (Central European Standard Time),1579881545686,0|0|0|0|0|0|0|0|0|0|0|0|0|0|0|0|0|0|0|0|0|0|0|0|0|0|0|0|0|0|0|0|0|0|0|0|0|0|0|0|0|0|0|0|0|0|0|0|0|0|0|0|0|0|0|0|0|0|0|0,0.5570833333333334,main_trials,10
11532,,1844,,all|most|some|none,all|most|some|none,right|wrong,5,TEST Vini,high,placeholder,,1579881579111,placeholder,80,,,fbcgbgccgn,Describe these results of <strong>Green Valley</strong> so as to make it appear as if there is a <strong>high</strong> success rate without lying.,vhmvhmvhmhvmvvm,3|3|3|3|3,In this exam,of the students got,of the questions,.,"%{""instances"" => [%{""n_col"" => 12, ""rows"" => [3, 3, 3, 3, 3]}], ""number"" => 11, ""sequence"" => [""CCCCC""], ""truth_table"" => []}",11,Fri Jan 24 2020 16:59:05 GMT+0100 (Central European Standard Time),1579881545686,1|1|1|0|0|0|0|0|0|0|0|0|1|1|1|0|0|0|0|0|0|0|0|0|1|1|1|0|0|0|0|0|0|0|0|0|1|1|1|0|0|0|0|0|0|0|0|0|1|1|1|0|0|0|0|0|0|0|0|0,0.5570833333333334,main_trials,11
11536,,24822,51,all|most|some|none,all|most|some|none,right|wrong,5,,high,placeholder,Higher Degree,1579882721518,placeholder,80,female,english ,57e028b7ccd0230001fc2462,Describe these results of <strong>Green Valley</strong> so as to make it appear as if there is a <strong>high</strong> success rate without lying.,all of the students got some questions right,9|9|3|3|3,In this exam,of the students got,of the questions,.,"%{""instances"" => [%{""n_col"" => 12, ""rows"" => [9, 9, 3, 3, 3]}], ""number"" => 12, ""sequence"" => [""BCCCC"", ""BBCCC""], ""truth_table"" => []}",12,Fri Jan 24 2020 16:13:14 GMT+0000 (Greenwich Mean Time),1579882394775,1|1|1|1|1|1|1|1|1|0|0|0|1|1|1|1|1|1|1|1|1|0|0|0|1|1|1|0|0|0|0|0|0|0|0|0|1|1|1|0|0|0|0|0|0|0|0|0|1|1|1|0|0|0|0|0|0|0|0|0,5.445716666666667,main_trials,1
11536,,20184,51,all|most|some|none,all|most|some|none,right|wrong,5,,low,placeholder,Higher Degree,1579882721518,placeholder,80,female,english ,57e028b7ccd0230001fc2462,Describe these results of <strong>Riverside</strong> so as to make it appear as if there is a <strong>low</strong> success rate without lying.,a few students got less than 50%,12|12|9|3|3,In this exam,of the students got,of the questions,.,"%{""instances"" => [%{""n_col"" => 12, ""rows"" => [12, 12, 9, 3, 3]}], ""number"" => 15, ""sequence"" => [""ABBBC"", ""ABBCC"", ""AABCC"", ""AABBC""], ""truth_table"" => []}",15,Fri Jan 24 2020 16:13:14 GMT+0000 (Greenwich Mean Time),1579882394775,1|1|1|1|1|1|1|1|1|1|1|1|1|1|1|1|1|1|1|1|1|1|1|1|1|1|1|1|1|1|1|1|1|0|0|0|1|1|1|0|0|0|0|0|0|0|0|0|1|1|1|0|0|0|0|0|0|0|0|0,5.445716666666667,main_trials,2
11536,,16997,51,all|most|some|none,all|most|some|none,right|wrong,5,,high,placeholder,Higher Degree,1579882721518,placeholder,80,female,english ,57e028b7ccd0230001fc2462,Describe these results of <strong>Green Valley</strong> so as to make it appear as if there is a <strong>high</strong> success rate without lying.,the majority of the students performed very well,12|12|12|3|3,In this exam,of the students got,of the questions,.,"%{""instances"" => [%{""n_col"" => 12, ""rows"" => [12, 12, 12, 3, 3]}], ""number"" => 16, ""sequence"" => [""AAACC"", ""AAAAC"", ""AAABC""], ""truth_table"" => []}",16,Fri Jan 24 2020 16:13:14 GMT+0000 (Greenwich Mean Time),1579882394775,1|1|1|1|1|1|1|1|1|1|1|1|1|1|1|1|1|1|1|1|1|1|1|1|1|1|1|1|1|1|1|1|1|1|1|1|1|1|1|0|0|0|0|0|0|0|0|0|1|1|1|0|0|0|0|0|0|0|0|0,5.445716666666667,main_trials,3
11536,,14399,51,all|most|some|none,all|most|some|none,right|wrong,5,,low,placeholder,Higher Degree,1579882721518,placeholder,80,female,english ,57e028b7ccd0230001fc2462,Describe these results of <strong>Riverside</strong> so as to make it appear as if there is a <strong>low</strong> success rate without lying.,the majority of the students performed poorly,3|3|0|0|0,In this exam,of the students got,of the questions,.,"%{""instances"" => [%{""n_col"" => 12, ""rows"" => [3, 3, 0, 0, 0]}], ""number"" => 2, ""sequence"" => [""CDDDD"", ""CCDDD""], ""truth_table"" => []}",2,Fri Jan 24 2020 16:13:14 GMT+0000 (Greenwich Mean Time),1579882394775,1|1|1|0|0|0|0|0|0|0|0|0|1|1|1|0|0|0|0|0|0|0|0|0|0|0|0|0|0|0|0|0|0|0|0|0|0|0|0|0|0|0|0|0|0|0|0|0|0|0|0|0|0|0|0|0|0|0|0|0,5.445716666666667,main_trials,4
11536,,18020,51,all|most|some|none,all|most|some|none,right|wrong,5,,high,placeholder,Higher Degree,1579882721518,placeholder,80,female,english ,57e028b7ccd0230001fc2462,Describe these results of <strong>Green Valley</strong> so as to make it appear as if there is a <strong>high</strong> success rate without lying.,every student achieved 100% success rate,12|12|12|12|12,In this exam,of the students got,of the questions,.,"%{""instances"" => [%{""n_col"" => 12, ""rows"" => '\f\f\f\f\f'}], ""number"" => 20, ""sequence"" => [""AAAAA""], ""truth_table"" => []}",20,Fri Jan 24 2020 16:13:14 GMT+0000 (Greenwich Mean Time),1579882394775,1|1|1|1|1|1|1|1|1|1|1|1|1|1|1|1|1|1|1|1|1|1|1|1|1|1|1|1|1|1|1|1|1|1|1|1|1|1|1|1|1|1|1|1|1|1|1|1|1|1|1|1|1|1|1|1|1|1|1|1,5.445716666666667,main_trials,5
11536,,20429,51,all|most|some|none,all|most|some|none,right|wrong,5,,low,placeholder,Higher Degree,1579882721518,placeholder,80,female,english ,57e028b7ccd0230001fc2462,Describe these results of <strong>Riverside</strong> so as to make it appear as if there is a <strong>low</strong> success rate without lying.,the majority of the students didnt get any questions right,12|12|0|0|0,In this exam,of the students got,of the questions,.,"%{""instances"" => [%{""n_col"" => 12, ""rows"" => [12, 12, 0, 0, 0]}], ""number"" => 4, ""sequence"" => [""ADDDD"", ""AADDD"", ""ABDDD"", ""ACDDD""], ""truth_table"" => []}",4,Fri Jan 24 2020 16:13:14 GMT+0000 (Greenwich Mean Time),1579882394775,1|1|1|1|1|1|1|1|1|1|1|1|1|1|1|1|1|1|1|1|1|1|1|1|0|0|0|0|0|0|0|0|0|0|0|0|0|0|0|0|0|0|0|0|0|0|0|0|0|0|0|0|0|0|0|0|0|0|0|0,5.445716666666667,main_trials,6
11536,,16622,51,all|most|some|none,all|most|some|none,right|wrong,5,,low,placeholder,Higher Degree,1579882721518,placeholder,80,female,english ,57e028b7ccd0230001fc2462,Describe these results of <strong>Riverside</strong> so as to make it appear as if there is a <strong>low</strong> success rate without lying.,a few of the students failed some of the questions,12|12|12|9|9,In this exam,of the students got,of the questions,.,"%{""instances"" => [%{""n_col"" => 12, ""rows"" => '\f\f\f\t\t'}], ""number"" => 19, ""sequence"" => [""AAABB"", ""AAAAB""], ""truth_table"" => []}",19,Fri Jan 24 2020 16:13:14 GMT+0000 (Greenwich Mean Time),1579882394775,1|1|1|1|1|1|1|1|1|1|1|1|1|1|1|1|1|1|1|1|1|1|1|1|1|1|1|1|1|1|1|1|1|1|1|1|1|1|1|1|1|1|1|1|1|0|0|0|1|1|1|1|1|1|1|1|1|0|0|0,5.445716666666667,main_trials,7
11536,,14656,51,all|most|some|none,all|most|some|none,right|wrong,5,,high,placeholder,Higher Degree,1579882721518,placeholder,80,female,english ,57e028b7ccd0230001fc2462,Describe these results of <strong>Green Valley</strong> so as to make it appear as if there is a <strong>high</strong> success rate without lying.,the majority of the students performed very well,9|9|9|0|0,In this exam,of the students got,of the questions,.,"%{""instances"" => [%{""n_col"" => 12, ""rows"" => [9, 9, 9, 0, 0]}], ""number"" => 7, ""sequence"" => [""BBBDD"", ""BBBBD"", ""BBBCD""], ""truth_table"" => []}",7,Fri Jan 24 2020 16:13:14 GMT+0000 (Greenwich Mean Time),1579882394775,1|1|1|1|1|1|1|1|1|0|0|0|1|1|1|1|1|1|1|1|1|0|0|0|1|1|1|1|1|1|1|1|1|0|0|0|0|0|0|0|0|0|0|0|0|0|0|0|0|0|0|0|0|0|0|0|0|0|0|0,5.445716666666667,main_trials,8
11536,,14054,51,all|most|some|none,all|most|some|none,right|wrong,5,,low,placeholder,Higher Degree,1579882721518,placeholder,80,female,english ,57e028b7ccd0230001fc2462,Describe these results of <strong>Riverside</strong> so as to make it appear as if there is a <strong>low</strong> success rate without lying.,several students failed to get a question right,12|12|9|0|0,In this exam,of the students got,of the questions,.,"%{""instances"" => [%{""n_col"" => 12, ""rows"" => [12, 12, 9, 0, 0]}], ""number"" => 8, ""sequence"" => [""ABBBD"", ""ABBDD"", ""AABDD"", ""ABBBD"", ""ABBCD"", ""AABCD""], ""truth_table"" => []}",8,Fri Jan 24 2020 16:13:14 GMT+0000 (Greenwich Mean Time),1579882394775,1|1|1|1|1|1|1|1|1|1|1|1|1|1|1|1|1|1|1|1|1|1|1|1|1|1|1|1|1|1|1|1|1|0|0|0|0|0|0|0|0|0|0|0|0|0|0|0|0|0|0|0|0|0|0|0|0|0|0|0,5.445716666666667,main_trials,9
11536,,22590,51,all|most|some|none,all|most|some|none,right|wrong,5,,high,placeholder,Higher Degree,1579882721518,placeholder,80,female,english ,57e028b7ccd0230001fc2462,Describe these results of <strong>Green Valley</strong> so as to make it appear as if there is a <strong>high</strong> success rate without lying.,some students performed very well,9|9|3|0|0,In this exam,of the students got,of the questions,.,"%{""instances"" => [%{""n_col"" => 12, ""rows"" => [9, 9, 3, 0, 0]}], ""number"" => 6, ""sequence"" => [""BCCCD"", ""BCCDD"", ""BBCDD"", ""BBCCD""], ""truth_table"" => []}",6,Fri Jan 24 2020 16:13:14 GMT+0000 (Greenwich Mean Time),1579882394775,1|1|1|1|1|1|1|1|1|0|0|0|1|1|1|1|1|1|1|1|1|0|0|0|1|1|1|0|0|0|0|0|0|0|0|0|0|0|0|0|0|0|0|0|0|0|0|0|0|0|0|0|0|0|0|0|0|0|0|0,5.445716666666667,main_trials,10
11536,,15248,51,all|most|some|none,all|most|some|none,right|wrong,5,,high,placeholder,Higher Degree,1579882721518,placeholder,80,female,english ,57e028b7ccd0230001fc2462,Describe these results of <strong>Green Valley</strong> so as to make it appear as if there is a <strong>high</strong> success rate without lying.,all of the students got some questions right,3|3|3|3|3,In this exam,of the students got,of the questions,.,"%{""instances"" => [%{""n_col"" => 12, ""rows"" => [3, 3, 3, 3, 3]}], ""number"" => 11, ""sequence"" => [""CCCCC""], ""truth_table"" => []}",11,Fri Jan 24 2020 16:13:14 GMT+0000 (Greenwich Mean Time),1579882394775,1|1|1|0|0|0|0|0|0|0|0|0|1|1|1|0|0|0|0|0|0|0|0|0|1|1|1|0|0|0|0|0|0|0|0|0|1|1|1|0|0|0|0|0|0|0|0|0|1|1|1|0|0|0|0|0|0|0|0|0,5.445716666666667,main_trials,11
11538,,77551,32,all|most|some|none,all|most|some|none,right|wrong,5,,high,placeholder,Graduated College,1579882757067,placeholder,80,female,English,5cf3ba5781ea050017a61781,Describe these results of <strong>Green Valley</strong> so as to make it appear as if there is a <strong>high</strong> success rate without lying.,Every single student received a grade of 75% or higher.,12|12|9|9|9,In this exam,of the students got,of the questions,.,"%{""instances"" => [%{""n_col"" => 12, ""rows"" => '\f\f\t\t\t'}], ""number"" => 18, ""sequence"" => [""ABBBB"", ""AABBB""], ""truth_table"" => []}",18,Fri Jan 24 2020 16:11:05 GMT+0000 (Greenwich Mean Time),1579882265509,1|1|1|1|1|1|1|1|1|1|1|1|1|1|1|1|1|1|1|1|1|1|1|1|1|1|1|1|1|1|1|1|1|0|0|0|1|1|1|1|1|1|1|1|1|0|0|0|1|1|1|1|1|1|1|1|1|0|0|0,8.192633333333333,main_trials,1
11538,,49923,32,all|most|some|none,all|most|some|none,right|wrong,5,,low,placeholder,Graduated College,1579882757067,placeholder,80,female,English,5cf3ba5781ea050017a61781,Describe these results of <strong>Riverside</strong> so as to make it appear as if there is a <strong>low</strong> success rate without lying.,Nearly half of the students failed to achieve top marks.,12|12|12|9|9,In this exam,of the students got,of the questions,.,"%{""instances"" => [%{""n_col"" => 12, ""rows"" => '\f\f\f\t\t'}], ""number"" => 19, ""sequence"" => [""AAABB"", ""AAAAB""], ""truth_table"" => []}",19,Fri Jan 24 2020 16:11:05 GMT+0000 (Greenwich Mean Time),1579882265509,1|1|1|1|1|1|1|1|1|1|1|1|1|1|1|1|1|1|1|1|1|1|1|1|1|1|1|1|1|1|1|1|1|1|1|1|1|1|1|1|1|1|1|1|1|0|0|0|1|1|1|1|1|1|1|1|1|0|0|0,8.192633333333333,main_trials,2
11538,,17470,32,all|most|some|none,all|most|some|none,right|wrong,5,,low,placeholder,Graduated College,1579882757067,placeholder,80,female,English,5cf3ba5781ea050017a61781,Describe these results of <strong>Riverside</strong> so as to make it appear as if there is a <strong>low</strong> success rate without lying.,Over half the students received a score of zero.,12|12|0|0|0,In this exam,of the students got,of the questions,.,"%{""instances"" => [%{""n_col"" => 12, ""rows"" => [12, 12, 0, 0, 0]}], ""number"" => 4, ""sequence"" => [""ADDDD"", ""AADDD"", ""ABDDD"", ""ACDDD""], ""truth_table"" => []}",4,Fri Jan 24 2020 16:11:05 GMT+0000 (Greenwich Mean Time),1579882265509,1|1|1|1|1|1|1|1|1|1|1|1|1|1|1|1|1|1|1|1|1|1|1|1|0|0|0|0|0|0|0|0|0|0|0|0|0|0|0|0|0|0|0|0|0|0|0|0|0|0|0|0|0|0|0|0|0|0|0|0,8.192633333333333,main_trials,3
11538,,16041,32,all|most|some|none,all|most|some|none,right|wrong,5,,high,placeholder,Graduated College,1579882757067,placeholder,80,female,English,5cf3ba5781ea050017a61781,Describe these results of <strong>Green Valley</strong> so as to make it appear as if there is a <strong>high</strong> success rate without lying.,Nearly half the students got full marks,12|12|3|0|0,In this exam,of the students got,of the questions,.,"%{""instances"" => [%{""n_col"" => 12, ""rows"" => [12, 12, 3, 0, 0]}], ""number"" => 1, ""sequence"" => [""ACCCD"", ""ACCDD"", ""AACDD"", ""AACCD"", ""ABCDD"", ""ABCCD""], ""truth_table"" => []}",1,Fri Jan 24 2020 16:11:05 GMT+0000 (Greenwich Mean Time),1579882265509,1|1|1|1|1|1|1|1|1|1|1|1|1|1|1|1|1|1|1|1|1|1|1|1|1|1|1|0|0|0|0|0|0|0|0|0|0|0|0|0|0|0|0|0|0|0|0|0|0|0|0|0|0|0|0|0|0|0|0|0,8.192633333333333,main_trials,4
11538,,20710,32,all|most|some|none,all|most|some|none,right|wrong,5,,low,placeholder,Graduated College,1579882757067,placeholder,80,female,English,5cf3ba5781ea050017a61781,Describe these results of <strong>Riverside</strong> so as to make it appear as if there is a <strong>low</strong> success rate without lying.,Nearly half of students received a score of zero.,3|3|3|0|0,In this exam,of the students got,of the questions,.,"%{""instances"" => [%{""n_col"" => 12, ""rows"" => [3, 3, 3, 0, 0]}], ""number"" => 5, ""sequence"" => [""CCCDD"", ""CCCCD""], ""truth_table"" => []}",5,Fri Jan 24 2020 16:11:05 GMT+0000 (Greenwich Mean Time),1579882265509,1|1|1|0|0|0|0|0|0|0|0|0|1|1|1|0|0|0|0|0|0|0|0|0|1|1|1|0|0|0|0|0|0|0|0|0|0|0|0|0|0|0|0|0|0|0|0|0|0|0|0|0|0|0|0|0|0|0|0|0,8.192633333333333,main_trials,5
11538,,23165,32,all|most|some|none,all|most|some|none,right|wrong,5,,high,placeholder,Graduated College,1579882757067,placeholder,80,female,English,5cf3ba5781ea050017a61781,Describe these results of <strong>Green Valley</strong> so as to make it appear as if there is a <strong>high</strong> success rate without lying.,An incredible result of full marks for 100% of the students,12|12|12|12|12,In this exam,of the students got,of the questions,.,"%{""instances"" => [%{""n_col"" => 12, ""rows"" => '\f\f\f\f\f'}], ""number"" => 20, ""sequence"" => [""AAAAA""], ""truth_table"" => []}",20,Fri Jan 24 2020 16:11:05 GMT+0000 (Greenwich Mean Time),1579882265509,1|1|1|1|1|1|1|1|1|1|1|1|1|1|1|1|1|1|1|1|1|1|1|1|1|1|1|1|1|1|1|1|1|1|1|1|1|1|1|1|1|1|1|1|1|1|1|1|1|1|1|1|1|1|1|1|1|1|1|1,8.192633333333333,main_trials,6
11538,,39516,32,all|most|some|none,all|most|some|none,right|wrong,5,,high,placeholder,Graduated College,1579882757067,placeholder,80,female,English,5cf3ba5781ea050017a61781,Describe these results of <strong>Green Valley</strong> so as to make it appear as if there is a <strong>high</strong> success rate without lying.,Top students scored over 75% on their exam,9|9|3|0|0,In this exam,of the students got,of the questions,.,"%{""instances"" => [%{""n_col"" => 12, ""rows"" => [9, 9, 3, 0, 0]}], ""number"" => 6, ""sequence"" => [""BCCCD"", ""BCCDD"", ""BBCDD"", ""BBCCD""], ""truth_table"" => []}",6,Fri Jan 24 2020 16:11:05 GMT+0000 (Greenwich Mean Time),1579882265509,1|1|1|1|1|1|1|1|1|0|0|0|1|1|1|1|1|1|1|1|1|0|0|0|1|1|1|0|0|0|0|0|0|0|0|0|0|0|0|0|0|0|0|0|0|0|0|0|0|0|0|0|0|0|0|0|0|0|0|0,8.192633333333333,main_trials,7
11538,,14011,32,all|most|some|none,all|most|some|none,right|wrong,5,,low,placeholder,Graduated College,1579882757067,placeholder,80,female,English,5cf3ba5781ea050017a61781,Describe these results of <strong>Riverside</strong> so as to make it appear as if there is a <strong>low</strong> success rate without lying.,"Complete failure across the board, 100% of students received a zero.",0|0|0|0|0,In this exam,of the students got,of the questions,.,"%{""instances"" => [%{""n_col"" => 12, ""rows"" => [0, 0, 0, 0, 0]}], ""number"" => 10, ""sequence"" => [""DDDDD""], ""truth_table"" => []}",10,Fri Jan 24 2020 16:11:05 GMT+0000 (Greenwich Mean Time),1579882265509,0|0|0|0|0|0|0|0|0|0|0|0|0|0|0|0|0|0|0|0|0|0|0|0|0|0|0|0|0|0|0|0|0|0|0|0|0|0|0|0|0|0|0|0|0|0|0|0|0|0|0|0|0|0|0|0|0|0|0|0,8.192633333333333,main_trials,8
11538,,14690,32,all|most|some|none,all|most|some|none,right|wrong,5,,high,placeholder,Graduated College,1579882757067,placeholder,80,female,English,5cf3ba5781ea050017a61781,Describe these results of <strong>Green Valley</strong> so as to make it appear as if there is a <strong>high</strong> success rate without lying.,All of the students scored 75% and above,9|9|9|9|9,In this exam,of the students got,of the questions,.,"%{""instances"" => [%{""n_col"" => 12, ""rows"" => '\t\t\t\t\t'}], ""number"" => 17, ""sequence"" => [""BBBBB""], ""truth_table"" => []}",17,Fri Jan 24 2020 16:11:05 GMT+0000 (Greenwich Mean Time),1579882265509,1|1|1|1|1|1|1|1|1|0|0|0|1|1|1|1|1|1|1|1|1|0|0|0|1|1|1|1|1|1|1|1|1|0|0|0|1|1|1|1|1|1|1|1|1|0|0|0|1|1|1|1|1|1|1|1|1|0|0|0,8.192633333333333,main_trials,9
11538,,25037,32,all|most|some|none,all|most|some|none,right|wrong,5,,low,placeholder,Graduated College,1579882757067,placeholder,80,female,English,5cf3ba5781ea050017a61781,Describe these results of <strong>Riverside</strong> so as to make it appear as if there is a <strong>low</strong> success rate without lying.,Over half of the students scored 25% and below,12|12|3|3|3,In this exam,of the students got,of the questions,.,"%{""instances"" => [%{""n_col"" => 12, ""rows"" => [12, 12, 3, 3, 3]}], ""number"" => 13, ""sequence"" => [""ACCCC"", ""AACCC"", ""ABCCC""], ""truth_table"" => []}",13,Fri Jan 24 2020 16:11:05 GMT+0000 (Greenwich Mean Time),1579882265509,1|1|1|1|1|1|1|1|1|1|1|1|1|1|1|1|1|1|1|1|1|1|1|1|1|1|1|0|0|0|0|0|0|0|0|0|1|1|1|0|0|0|0|0|0|0|0|0|1|1|1|0|0|0|0|0|0|0|0|0,8.192633333333333,main_trials,10
11538,,30656,32,all|most|some|none,all|most|some|none,right|wrong,5,,high,placeholder,Graduated College,1579882757067,placeholder,80,female,English,5cf3ba5781ea050017a61781,Describe these results of <strong>Green Valley</strong> so as to make it appear as if there is a <strong>high</strong> success rate without lying.,Not a single zero score amongst all the students,3|3|3|3|3,In this exam,of the students got,of the questions,.,"%{""instances"" => [%{""n_col"" => 12, ""rows"" => [3, 3, 3, 3, 3]}], ""number"" => 11, ""sequence"" => [""CCCCC""], ""truth_table"" => []}",11,Fri Jan 24 2020 16:11:05 GMT+0000 (Greenwich Mean Time),1579882265509,1|1|1|0|0|0|0|0|0|0|0|0|1|1|1|0|0|0|0|0|0|0|0|0|1|1|1|0|0|0|0|0|0|0|0|0|1|1|1|0|0|0|0|0|0|0|0|0|1|1|1|0|0|0|0|0|0|0|0|0,8.192633333333333,main_trials,11
