submission_id,QUD,RT,age,choice_options_1,choice_options_2,choice_options_3,column_number,comments,condition,correct,education,endTime,expected,experiment_id,gender,languages,prolific_id,question,response,row_number,sentence_chunk_1,sentence_chunk_2,sentence_chunk_3,sentence_chunk_4,situation,situation_number,startDate,startTime,stimulus,timeSpent,trial_name,trial_number
11638,,221434,29,all|most|some|none,all|most|some|none,right|wrong,5,,high,placeholder,Higher Degree,1580300319777,placeholder,81,female,English,5d6ec011b0077300177095e9,Describe these results of <strong>Green Valley</strong> so as to make it appear as if there is a <strong>high</strong> success rate without lying.,40% of pupils achieved 100% on their exam scores,12|12|3|3|3,In this exam,of the students got,of the questions,.,"%{""instances"" => [%{""n_col"" => 12, ""rows"" => [12, 12, 3, 3, 3]}], ""number"" => 13, ""sequence"" => [""ACCCC"", ""AACCC"", ""ABCCC""], ""truth_table"" => []}",13,Wed Jan 29 2020 12:03:59 GMT+0000 (Greenwich Mean Time),1580299439233,1|1|1|1|1|1|1|1|1|1|1|1|1|1|1|1|1|1|1|1|1|1|1|1|1|1|1|0|0|0|0|0|0|0|0|0|1|1|1|0|0|0|0|0|0|0|0|0|1|1|1|0|0|0|0|0|0|0|0|0,14.675733333333334,main_trials,1
11638,,90018,29,all|most|some|none,all|most|some|none,right|wrong,5,,low,placeholder,Higher Degree,1580300319777,placeholder,81,female,English,5d6ec011b0077300177095e9,Describe these results of <strong>Riverside</strong> so as to make it appear as if there is a <strong>low</strong> success rate without lying.,"Nobody achieved a 100% score, the highest mark was 75%",9|9|9|9|9,In this exam,of the students got,of the questions,.,"%{""instances"" => [%{""n_col"" => 12, ""rows"" => '\t\t\t\t\t'}], ""number"" => 17, ""sequence"" => [""BBBBB""], ""truth_table"" => []}",17,Wed Jan 29 2020 12:03:59 GMT+0000 (Greenwich Mean Time),1580299439233,1|1|1|1|1|1|1|1|1|0|0|0|1|1|1|1|1|1|1|1|1|0|0|0|1|1|1|1|1|1|1|1|1|0|0|0|1|1|1|1|1|1|1|1|1|0|0|0|1|1|1|1|1|1|1|1|1|0|0|0,14.675733333333334,main_trials,2
11638,,31891,29,all|most|some|none,all|most|some|none,right|wrong,5,,low,placeholder,Higher Degree,1580300319777,placeholder,81,female,English,5d6ec011b0077300177095e9,Describe these results of <strong>Riverside</strong> so as to make it appear as if there is a <strong>low</strong> success rate without lying.,No pupils managed to achieve any score on their test results,0|0|0|0|0,In this exam,of the students got,of the questions,.,"%{""instances"" => [%{""n_col"" => 12, ""rows"" => [0, 0, 0, 0, 0]}], ""number"" => 10, ""sequence"" => [""DDDDD""], ""truth_table"" => []}",10,Wed Jan 29 2020 12:03:59 GMT+0000 (Greenwich Mean Time),1580299439233,0|0|0|0|0|0|0|0|0|0|0|0|0|0|0|0|0|0|0|0|0|0|0|0|0|0|0|0|0|0|0|0|0|0|0|0|0|0|0|0|0|0|0|0|0|0|0|0|0|0|0|0|0|0|0|0|0|0|0|0,14.675733333333334,main_trials,3
11638,,131442,29,all|most|some|none,all|most|some|none,right|wrong,5,,high,placeholder,Higher Degree,1580300319777,placeholder,81,female,English,5d6ec011b0077300177095e9,Describe these results of <strong>Green Valley</strong> so as to make it appear as if there is a <strong>high</strong> success rate without lying.,"High success from pupils, 3 out of 5 achieving marks of 75% or above",12|12|9|0|0,In this exam,of the students got,of the questions,.,"%{""instances"" => [%{""n_col"" => 12, ""rows"" => [12, 12, 9, 0, 0]}], ""number"" => 8, ""sequence"" => [""ABBBD"", ""ABBDD"", ""AABDD"", ""ABBBD"", ""ABBCD"", ""AABCD""], ""truth_table"" => []}",8,Wed Jan 29 2020 12:03:59 GMT+0000 (Greenwich Mean Time),1580299439233,1|1|1|1|1|1|1|1|1|1|1|1|1|1|1|1|1|1|1|1|1|1|1|1|1|1|1|1|1|1|1|1|1|0|0|0|0|0|0|0|0|0|0|0|0|0|0|0|0|0|0|0|0|0|0|0|0|0|0|0,14.675733333333334,main_trials,4
11638,,19863,29,all|most|some|none,all|most|some|none,right|wrong,5,,high,placeholder,Higher Degree,1580300319777,placeholder,81,female,English,5d6ec011b0077300177095e9,Describe these results of <strong>Green Valley</strong> so as to make it appear as if there is a <strong>high</strong> success rate without lying.,Over half of pupils received a score or 75%,9|9|9|0|0,In this exam,of the students got,of the questions,.,"%{""instances"" => [%{""n_col"" => 12, ""rows"" => [9, 9, 9, 0, 0]}], ""number"" => 7, ""sequence"" => [""BBBDD"", ""BBBBD"", ""BBBCD""], ""truth_table"" => []}",7,Wed Jan 29 2020 12:03:59 GMT+0000 (Greenwich Mean Time),1580299439233,1|1|1|1|1|1|1|1|1|0|0|0|1|1|1|1|1|1|1|1|1|0|0|0|1|1|1|1|1|1|1|1|1|0|0|0|0|0|0|0|0|0|0|0|0|0|0|0|0|0|0|0|0|0|0|0|0|0|0|0,14.675733333333334,main_trials,5
11638,,19787,29,all|most|some|none,all|most|some|none,right|wrong,5,,low,placeholder,Higher Degree,1580300319777,placeholder,81,female,English,5d6ec011b0077300177095e9,Describe these results of <strong>Riverside</strong> so as to make it appear as if there is a <strong>low</strong> success rate without lying.,Less than half of pupils achieved 75%,9|9|0|0|0,In this exam,of the students got,of the questions,.,"%{""instances"" => [%{""n_col"" => 12, ""rows"" => [9, 9, 0, 0, 0]}], ""number"" => 3, ""sequence"" => [""BDDDD"", ""BBDDD"", ""BCDDD""], ""truth_table"" => []}",3,Wed Jan 29 2020 12:03:59 GMT+0000 (Greenwich Mean Time),1580299439233,1|1|1|1|1|1|1|1|1|0|0|0|1|1|1|1|1|1|1|1|1|0|0|0|0|0|0|0|0|0|0|0|0|0|0|0|0|0|0|0|0|0|0|0|0|0|0|0|0|0|0|0|0|0|0|0|0|0|0|0,14.675733333333334,main_trials,6
11638,,39983,29,all|most|some|none,all|most|some|none,right|wrong,5,,high,placeholder,Higher Degree,1580300319777,placeholder,81,female,English,5d6ec011b0077300177095e9,Describe these results of <strong>Green Valley</strong> so as to make it appear as if there is a <strong>high</strong> success rate without lying.,"All pupils received a mark, some achieving up to 75%",9|9|3|3|3,In this exam,of the students got,of the questions,.,"%{""instances"" => [%{""n_col"" => 12, ""rows"" => [9, 9, 3, 3, 3]}], ""number"" => 12, ""sequence"" => [""BCCCC"", ""BBCCC""], ""truth_table"" => []}",12,Wed Jan 29 2020 12:03:59 GMT+0000 (Greenwich Mean Time),1580299439233,1|1|1|1|1|1|1|1|1|0|0|0|1|1|1|1|1|1|1|1|1|0|0|0|1|1|1|0|0|0|0|0|0|0|0|0|1|1|1|0|0|0|0|0|0|0|0|0|1|1|1|0|0|0|0|0|0|0|0|0,14.675733333333334,main_trials,7
11638,,37528,29,all|most|some|none,all|most|some|none,right|wrong,5,,high,placeholder,Higher Degree,1580300319777,placeholder,81,female,English,5d6ec011b0077300177095e9,Describe these results of <strong>Green Valley</strong> so as to make it appear as if there is a <strong>high</strong> success rate without lying.,"All pupils received a score, 3 out of 5 achieving 75% or above",12|12|9|3|3,In this exam,of the students got,of the questions,.,"%{""instances"" => [%{""n_col"" => 12, ""rows"" => [12, 12, 9, 3, 3]}], ""number"" => 15, ""sequence"" => [""ABBBC"", ""ABBCC"", ""AABCC"", ""AABBC""], ""truth_table"" => []}",15,Wed Jan 29 2020 12:03:59 GMT+0000 (Greenwich Mean Time),1580299439233,1|1|1|1|1|1|1|1|1|1|1|1|1|1|1|1|1|1|1|1|1|1|1|1|1|1|1|1|1|1|1|1|1|0|0|0|1|1|1|0|0|0|0|0|0|0|0|0|1|1|1|0|0|0|0|0|0|0|0|0,14.675733333333334,main_trials,8
11638,,21020,29,all|most|some|none,all|most|some|none,right|wrong,5,,high,placeholder,Higher Degree,1580300319777,placeholder,81,female,English,5d6ec011b0077300177095e9,Describe these results of <strong>Green Valley</strong> so as to make it appear as if there is a <strong>high</strong> success rate without lying.,Over half of pupils recieved a 100% score,12|12|12|0|0,In this exam,of the students got,of the questions,.,"%{""instances"" => [%{""n_col"" => 12, ""rows"" => [12, 12, 12, 0, 0]}], ""number"" => 9, ""sequence"" => [""AAADD"", ""AAAAD"", ""AAABD"", ""AAACD""], ""truth_table"" => []}",9,Wed Jan 29 2020 12:03:59 GMT+0000 (Greenwich Mean Time),1580299439233,1|1|1|1|1|1|1|1|1|1|1|1|1|1|1|1|1|1|1|1|1|1|1|1|1|1|1|1|1|1|1|1|1|1|1|1|0|0|0|0|0|0|0|0|0|0|0|0|0|0|0|0|0|0|0|0|0|0|0|0,14.675733333333334,main_trials,9
11638,,23562,29,all|most|some|none,all|most|some|none,right|wrong,5,,low,placeholder,Higher Degree,1580300319777,placeholder,81,female,English,5d6ec011b0077300177095e9,Describe these results of <strong>Riverside</strong> so as to make it appear as if there is a <strong>low</strong> success rate without lying.,Over half of the pupils recieved less than a 50% score,9|9|3|0|0,In this exam,of the students got,of the questions,.,"%{""instances"" => [%{""n_col"" => 12, ""rows"" => [9, 9, 3, 0, 0]}], ""number"" => 6, ""sequence"" => [""BCCCD"", ""BCCDD"", ""BBCDD"", ""BBCCD""], ""truth_table"" => []}",6,Wed Jan 29 2020 12:03:59 GMT+0000 (Greenwich Mean Time),1580299439233,1|1|1|1|1|1|1|1|1|0|0|0|1|1|1|1|1|1|1|1|1|0|0|0|1|1|1|0|0|0|0|0|0|0|0|0|0|0|0|0|0|0|0|0|0|0|0|0|0|0|0|0|0|0|0|0|0|0|0|0,14.675733333333334,main_trials,10
11638,,57433,29,all|most|some|none,all|most|some|none,right|wrong,5,,low,placeholder,Higher Degree,1580300319777,placeholder,81,female,English,5d6ec011b0077300177095e9,Describe these results of <strong>Riverside</strong> so as to make it appear as if there is a <strong>low</strong> success rate without lying.,Scores were all 25% or below,3|3|3|0|0,In this exam,of the students got,of the questions,.,"%{""instances"" => [%{""n_col"" => 12, ""rows"" => [3, 3, 3, 0, 0]}], ""number"" => 5, ""sequence"" => [""CCCDD"", ""CCCCD""], ""truth_table"" => []}",5,Wed Jan 29 2020 12:03:59 GMT+0000 (Greenwich Mean Time),1580299439233,1|1|1|0|0|0|0|0|0|0|0|0|1|1|1|0|0|0|0|0|0|0|0|0|1|1|1|0|0|0|0|0|0|0|0|0|0|0|0|0|0|0|0|0|0|0|0|0|0|0|0|0|0|0|0|0|0|0|0|0,14.675733333333334,main_trials,11
11641,,94550,26,all|most|some|none,all|most|some|none,right|wrong,5,,high,placeholder,Graduated College,1580300727161,placeholder,81,male,English,5cd2ae5020c6800014c894e5,Describe these results of <strong>Green Valley</strong> so as to make it appear as if there is a <strong>high</strong> success rate without lying.,"Two of our students performed well, with room for improvement which Green Valley school is all about!",3|3|0|0|0,In this exam,of the students got,of the questions,.,"%{""instances"" => [%{""n_col"" => 12, ""rows"" => [3, 3, 0, 0, 0]}], ""number"" => 2, ""sequence"" => [""CDDDD"", ""CCDDD""], ""truth_table"" => []}",2,Wed Jan 29 2020 12:03:18 GMT+0000 (Greenwich Mean Time),1580299398666,1|1|1|0|0|0|0|0|0|0|0|0|1|1|1|0|0|0|0|0|0|0|0|0|0|0|0|0|0|0|0|0|0|0|0|0|0|0|0|0|0|0|0|0|0|0|0|0|0|0|0|0|0|0|0|0|0|0|0|0,22.141583333333333,main_trials,1
11641,,36679,26,all|most|some|none,all|most|some|none,right|wrong,5,,low,placeholder,Graduated College,1580300727161,placeholder,81,male,English,5cd2ae5020c6800014c894e5,Describe these results of <strong>Riverside</strong> so as to make it appear as if there is a <strong>low</strong> success rate without lying.,none of the students from riverside managed to answer all the questions correctly,3|3|3|3|3,In this exam,of the students got,of the questions,.,"%{""instances"" => [%{""n_col"" => 12, ""rows"" => [3, 3, 3, 3, 3]}], ""number"" => 11, ""sequence"" => [""CCCCC""], ""truth_table"" => []}",11,Wed Jan 29 2020 12:03:18 GMT+0000 (Greenwich Mean Time),1580299398666,1|1|1|0|0|0|0|0|0|0|0|0|1|1|1|0|0|0|0|0|0|0|0|0|1|1|1|0|0|0|0|0|0|0|0|0|1|1|1|0|0|0|0|0|0|0|0|0|1|1|1|0|0|0|0|0|0|0|0|0,22.141583333333333,main_trials,2
11641,,27785,26,all|most|some|none,all|most|some|none,right|wrong,5,,low,placeholder,Graduated College,1580300727161,placeholder,81,male,English,5cd2ae5020c6800014c894e5,Describe these results of <strong>Riverside</strong> so as to make it appear as if there is a <strong>low</strong> success rate without lying.,Two of the students failed to even get half the questions correct,9|9|9|3|3,In this exam,of the students got,of the questions,.,"%{""instances"" => [%{""n_col"" => 12, ""rows"" => [9, 9, 9, 3, 3]}], ""number"" => 14, ""sequence"" => [""BBBCC"", ""BBBBC""], ""truth_table"" => []}",14,Wed Jan 29 2020 12:03:18 GMT+0000 (Greenwich Mean Time),1580299398666,1|1|1|1|1|1|1|1|1|0|0|0|1|1|1|1|1|1|1|1|1|0|0|0|1|1|1|1|1|1|1|1|1|0|0|0|1|1|1|0|0|0|0|0|0|0|0|0|1|1|1|0|0|0|0|0|0|0|0|0,22.141583333333333,main_trials,3
11641,,48031,26,all|most|some|none,all|most|some|none,right|wrong,5,,high,placeholder,Graduated College,1580300727161,placeholder,81,male,English,5cd2ae5020c6800014c894e5,Describe these results of <strong>Green Valley</strong> so as to make it appear as if there is a <strong>high</strong> success rate without lying.,The majority of the students got over 9/12 questions correct,12|12|9|0|0,In this exam,of the students got,of the questions,.,"%{""instances"" => [%{""n_col"" => 12, ""rows"" => [12, 12, 9, 0, 0]}], ""number"" => 8, ""sequence"" => [""ABBBD"", ""ABBDD"", ""AABDD"", ""ABBBD"", ""ABBCD"", ""AABCD""], ""truth_table"" => []}",8,Wed Jan 29 2020 12:03:18 GMT+0000 (Greenwich Mean Time),1580299398666,1|1|1|1|1|1|1|1|1|1|1|1|1|1|1|1|1|1|1|1|1|1|1|1|1|1|1|1|1|1|1|1|1|0|0|0|0|0|0|0|0|0|0|0|0|0|0|0|0|0|0|0|0|0|0|0|0|0|0|0,22.141583333333333,main_trials,4
11641,,72759,26,all|most|some|none,all|most|some|none,right|wrong,5,,low,placeholder,Graduated College,1580300727161,placeholder,81,male,English,5cd2ae5020c6800014c894e5,Describe these results of <strong>Riverside</strong> so as to make it appear as if there is a <strong>low</strong> success rate without lying.,3 out of the 5 students failed to even get one question correct,12|12|0|0|0,In this exam,of the students got,of the questions,.,"%{""instances"" => [%{""n_col"" => 12, ""rows"" => [12, 12, 0, 0, 0]}], ""number"" => 4, ""sequence"" => [""ADDDD"", ""AADDD"", ""ABDDD"", ""ACDDD""], ""truth_table"" => []}",4,Wed Jan 29 2020 12:03:18 GMT+0000 (Greenwich Mean Time),1580299398666,1|1|1|1|1|1|1|1|1|1|1|1|1|1|1|1|1|1|1|1|1|1|1|1|0|0|0|0|0|0|0|0|0|0|0|0|0|0|0|0|0|0|0|0|0|0|0|0|0|0|0|0|0|0|0|0|0|0|0|0,22.141583333333333,main_trials,5
11641,,12839,26,all|most|some|none,all|most|some|none,right|wrong,5,,high,placeholder,Graduated College,1580300727161,placeholder,81,male,English,5cd2ae5020c6800014c894e5,Describe these results of <strong>Green Valley</strong> so as to make it appear as if there is a <strong>high</strong> success rate without lying.,Majority of our students passed with full marks,12|12|12|0|0,In this exam,of the students got,of the questions,.,"%{""instances"" => [%{""n_col"" => 12, ""rows"" => [12, 12, 12, 0, 0]}], ""number"" => 9, ""sequence"" => [""AAADD"", ""AAAAD"", ""AAABD"", ""AAACD""], ""truth_table"" => []}",9,Wed Jan 29 2020 12:03:18 GMT+0000 (Greenwich Mean Time),1580299398666,1|1|1|1|1|1|1|1|1|1|1|1|1|1|1|1|1|1|1|1|1|1|1|1|1|1|1|1|1|1|1|1|1|1|1|1|0|0|0|0|0|0|0|0|0|0|0|0|0|0|0|0|0|0|0|0|0|0|0|0,22.141583333333333,main_trials,6
11641,,29350,26,all|most|some|none,all|most|some|none,right|wrong,5,,low,placeholder,Graduated College,1580300727161,placeholder,81,male,English,5cd2ae5020c6800014c894e5,Describe these results of <strong>Riverside</strong> so as to make it appear as if there is a <strong>low</strong> success rate without lying.,two of the studnets failed the test scoring zero marks and one student only got 3/12 answers correct,12|12|3|0|0,In this exam,of the students got,of the questions,.,"%{""instances"" => [%{""n_col"" => 12, ""rows"" => [12, 12, 3, 0, 0]}], ""number"" => 1, ""sequence"" => [""ACCCD"", ""ACCDD"", ""AACDD"", ""AACCD"", ""ABCDD"", ""ABCCD""], ""truth_table"" => []}",1,Wed Jan 29 2020 12:03:18 GMT+0000 (Greenwich Mean Time),1580299398666,1|1|1|1|1|1|1|1|1|1|1|1|1|1|1|1|1|1|1|1|1|1|1|1|1|1|1|0|0|0|0|0|0|0|0|0|0|0|0|0|0|0|0|0|0|0|0|0|0|0|0|0|0|0|0|0|0|0|0|0,22.141583333333333,main_trials,7
11641,,20805,26,all|most|some|none,all|most|some|none,right|wrong,5,,high,placeholder,Graduated College,1580300727161,placeholder,81,male,English,5cd2ae5020c6800014c894e5,Describe these results of <strong>Green Valley</strong> so as to make it appear as if there is a <strong>high</strong> success rate without lying.,Majority of our students got answers correct,3|3|3|0|0,In this exam,of the students got,of the questions,.,"%{""instances"" => [%{""n_col"" => 12, ""rows"" => [3, 3, 3, 0, 0]}], ""number"" => 5, ""sequence"" => [""CCCDD"", ""CCCCD""], ""truth_table"" => []}",5,Wed Jan 29 2020 12:03:18 GMT+0000 (Greenwich Mean Time),1580299398666,1|1|1|0|0|0|0|0|0|0|0|0|1|1|1|0|0|0|0|0|0|0|0|0|1|1|1|0|0|0|0|0|0|0|0|0|0|0|0|0|0|0|0|0|0|0|0|0|0|0|0|0|0|0|0|0|0|0|0|0,22.141583333333333,main_trials,8
11641,,264686,26,all|most|some|none,all|most|some|none,right|wrong,5,,low,placeholder,Graduated College,1580300727161,placeholder,81,male,English,5cd2ae5020c6800014c894e5,Describe these results of <strong>Riverside</strong> so as to make it appear as if there is a <strong>low</strong> success rate without lying.,3 of the students wasnt able to hit full marks,12|12|9|3|3,In this exam,of the students got,of the questions,.,"%{""instances"" => [%{""n_col"" => 12, ""rows"" => [12, 12, 9, 3, 3]}], ""number"" => 15, ""sequence"" => [""ABBBC"", ""ABBCC"", ""AABCC"", ""AABBC""], ""truth_table"" => []}",15,Wed Jan 29 2020 12:03:18 GMT+0000 (Greenwich Mean Time),1580299398666,1|1|1|1|1|1|1|1|1|1|1|1|1|1|1|1|1|1|1|1|1|1|1|1|1|1|1|1|1|1|1|1|1|0|0|0|1|1|1|0|0|0|0|0|0|0|0|0|1|1|1|0|0|0|0|0|0|0|0|0,22.141583333333333,main_trials,9
11641,,37540,26,all|most|some|none,all|most|some|none,right|wrong,5,,high,placeholder,Graduated College,1580300727161,placeholder,81,male,English,5cd2ae5020c6800014c894e5,Describe these results of <strong>Green Valley</strong> so as to make it appear as if there is a <strong>high</strong> success rate without lying.,All of the students tried there best and there is room to improve with the support of the teaching staff here at green valley,0|0|0|0|0,In this exam,of the students got,of the questions,.,"%{""instances"" => [%{""n_col"" => 12, ""rows"" => [0, 0, 0, 0, 0]}], ""number"" => 10, ""sequence"" => [""DDDDD""], ""truth_table"" => []}",10,Wed Jan 29 2020 12:03:18 GMT+0000 (Greenwich Mean Time),1580299398666,0|0|0|0|0|0|0|0|0|0|0|0|0|0|0|0|0|0|0|0|0|0|0|0|0|0|0|0|0|0|0|0|0|0|0|0|0|0|0|0|0|0|0|0|0|0|0|0|0|0|0|0|0|0|0|0|0|0|0|0,22.141583333333333,main_trials,10
11641,,20092,26,all|most|some|none,all|most|some|none,right|wrong,5,,high,placeholder,Graduated College,1580300727161,placeholder,81,male,English,5cd2ae5020c6800014c894e5,Describe these results of <strong>Green Valley</strong> so as to make it appear as if there is a <strong>high</strong> success rate without lying.,3 of our students got full marks with the rest narrowly missing out on full marks,12|12|12|9|9,In this exam,of the students got,of the questions,.,"%{""instances"" => [%{""n_col"" => 12, ""rows"" => '\f\f\f\t\t'}], ""number"" => 19, ""sequence"" => [""AAABB"", ""AAAAB""], ""truth_table"" => []}",19,Wed Jan 29 2020 12:03:18 GMT+0000 (Greenwich Mean Time),1580299398666,1|1|1|1|1|1|1|1|1|1|1|1|1|1|1|1|1|1|1|1|1|1|1|1|1|1|1|1|1|1|1|1|1|1|1|1|1|1|1|1|1|1|1|1|1|0|0|0|1|1|1|1|1|1|1|1|1|0|0|0,22.141583333333333,main_trials,11
11625,,191498,37,all|most|some|none,all|most|some|none,right|wrong,5,,high,placeholder,Higher Degree,1580228112646,placeholder,81,female,english,5d56c73e020f3c00015e5a48,Describe these results of <strong>Green Valley</strong> so as to make it appear as if there is a <strong>high</strong> success rate without lying.,two of the students performed exceptionally,9|9|0|0|0,In this exam,of the students got,of the questions,.,"%{""instances"" => [%{""n_col"" => 12, ""rows"" => [9, 9, 0, 0, 0]}], ""number"" => 3, ""sequence"" => [""BDDDD"", ""BBDDD"", ""BCDDD""], ""truth_table"" => []}",3,Tue Jan 28 2020 16:01:57 GMT+0000 (Greenwich Mean Time),1580227317234,1|1|1|1|1|1|1|1|1|0|0|0|1|1|1|1|1|1|1|1|1|0|0|0|0|0|0|0|0|0|0|0|0|0|0|0|0|0|0|0|0|0|0|0|0|0|0|0|0|0|0|0|0|0|0|0|0|0|0|0,13.256866666666667,main_trials,1
11625,,22354,37,all|most|some|none,all|most|some|none,right|wrong,5,,high,placeholder,Higher Degree,1580228112646,placeholder,81,female,english,5d56c73e020f3c00015e5a48,Describe these results of <strong>Green Valley</strong> so as to make it appear as if there is a <strong>high</strong> success rate without lying.,"most of the students answered most of the questions correctly, with some getting full marks",12|12|9|9|9,In this exam,of the students got,of the questions,.,"%{""instances"" => [%{""n_col"" => 12, ""rows"" => '\f\f\t\t\t'}], ""number"" => 18, ""sequence"" => [""ABBBB"", ""AABBB""], ""truth_table"" => []}",18,Tue Jan 28 2020 16:01:57 GMT+0000 (Greenwich Mean Time),1580227317234,1|1|1|1|1|1|1|1|1|1|1|1|1|1|1|1|1|1|1|1|1|1|1|1|1|1|1|1|1|1|1|1|1|0|0|0|1|1|1|1|1|1|1|1|1|0|0|0|1|1|1|1|1|1|1|1|1|0|0|0,13.256866666666667,main_trials,2
11625,,12540,37,all|most|some|none,all|most|some|none,right|wrong,5,,low,placeholder,Higher Degree,1580228112646,placeholder,81,female,english,5d56c73e020f3c00015e5a48,Describe these results of <strong>Riverside</strong> so as to make it appear as if there is a <strong>low</strong> success rate without lying.,100% of students got less than 50% correct,3|3|3|3|3,In this exam,of the students got,of the questions,.,"%{""instances"" => [%{""n_col"" => 12, ""rows"" => [3, 3, 3, 3, 3]}], ""number"" => 11, ""sequence"" => [""CCCCC""], ""truth_table"" => []}",11,Tue Jan 28 2020 16:01:57 GMT+0000 (Greenwich Mean Time),1580227317234,1|1|1|0|0|0|0|0|0|0|0|0|1|1|1|0|0|0|0|0|0|0|0|0|1|1|1|0|0|0|0|0|0|0|0|0|1|1|1|0|0|0|0|0|0|0|0|0|1|1|1|0|0|0|0|0|0|0|0|0,13.256866666666667,main_trials,3
11625,,13195,37,all|most|some|none,all|most|some|none,right|wrong,5,,low,placeholder,Higher Degree,1580228112646,placeholder,81,female,english,5d56c73e020f3c00015e5a48,Describe these results of <strong>Riverside</strong> so as to make it appear as if there is a <strong>low</strong> success rate without lying.,most of the students got most of the questions right,12|12|9|0|0,In this exam,of the students got,of the questions,.,"%{""instances"" => [%{""n_col"" => 12, ""rows"" => [12, 12, 9, 0, 0]}], ""number"" => 8, ""sequence"" => [""ABBBD"", ""ABBDD"", ""AABDD"", ""ABBBD"", ""ABBCD"", ""AABCD""], ""truth_table"" => []}",8,Tue Jan 28 2020 16:01:57 GMT+0000 (Greenwich Mean Time),1580227317234,1|1|1|1|1|1|1|1|1|1|1|1|1|1|1|1|1|1|1|1|1|1|1|1|1|1|1|1|1|1|1|1|1|0|0|0|0|0|0|0|0|0|0|0|0|0|0|0|0|0|0|0|0|0|0|0|0|0|0|0,13.256866666666667,main_trials,4
11625,,33850,37,all|most|some|none,all|most|some|none,right|wrong,5,,low,placeholder,Higher Degree,1580228112646,placeholder,81,female,english,5d56c73e020f3c00015e5a48,Describe these results of <strong>Riverside</strong> so as to make it appear as if there is a <strong>low</strong> success rate without lying.,most of the questions were answered incorrectly,3|3|3|0|0,In this exam,of the students got,of the questions,.,"%{""instances"" => [%{""n_col"" => 12, ""rows"" => [3, 3, 3, 0, 0]}], ""number"" => 5, ""sequence"" => [""CCCDD"", ""CCCCD""], ""truth_table"" => []}",5,Tue Jan 28 2020 16:01:57 GMT+0000 (Greenwich Mean Time),1580227317234,1|1|1|0|0|0|0|0|0|0|0|0|1|1|1|0|0|0|0|0|0|0|0|0|1|1|1|0|0|0|0|0|0|0|0|0|0|0|0|0|0|0|0|0|0|0|0|0|0|0|0|0|0|0|0|0|0|0|0|0,13.256866666666667,main_trials,5
11625,,44198,37,all|most|some|none,all|most|some|none,right|wrong,5,,low,placeholder,Higher Degree,1580228112646,placeholder,81,female,english,5d56c73e020f3c00015e5a48,Describe these results of <strong>Riverside</strong> so as to make it appear as if there is a <strong>low</strong> success rate without lying.,some of the questions were answered incorrectly,12|12|12|9|9,In this exam,of the students got,of the questions,.,"%{""instances"" => [%{""n_col"" => 12, ""rows"" => '\f\f\f\t\t'}], ""number"" => 19, ""sequence"" => [""AAABB"", ""AAAAB""], ""truth_table"" => []}",19,Tue Jan 28 2020 16:01:57 GMT+0000 (Greenwich Mean Time),1580227317234,1|1|1|1|1|1|1|1|1|1|1|1|1|1|1|1|1|1|1|1|1|1|1|1|1|1|1|1|1|1|1|1|1|1|1|1|1|1|1|1|1|1|1|1|1|0|0|0|1|1|1|1|1|1|1|1|1|0|0|0,13.256866666666667,main_trials,6
11625,,24555,37,all|most|some|none,all|most|some|none,right|wrong,5,,low,placeholder,Higher Degree,1580228112646,placeholder,81,female,english,5d56c73e020f3c00015e5a48,Describe these results of <strong>Riverside</strong> so as to make it appear as if there is a <strong>low</strong> success rate without lying.,"most of the questions were answered incorrectly, with none of the students getting full marks",9|9|3|0|0,In this exam,of the students got,of the questions,.,"%{""instances"" => [%{""n_col"" => 12, ""rows"" => [9, 9, 3, 0, 0]}], ""number"" => 6, ""sequence"" => [""BCCCD"", ""BCCDD"", ""BBCDD"", ""BBCCD""], ""truth_table"" => []}",6,Tue Jan 28 2020 16:01:57 GMT+0000 (Greenwich Mean Time),1580227317234,1|1|1|1|1|1|1|1|1|0|0|0|1|1|1|1|1|1|1|1|1|0|0|0|1|1|1|0|0|0|0|0|0|0|0|0|0|0|0|0|0|0|0|0|0|0|0|0|0|0|0|0|0|0|0|0|0|0|0|0,13.256866666666667,main_trials,7
11625,,11570,37,all|most|some|none,all|most|some|none,right|wrong,5,,low,placeholder,Higher Degree,1580228112646,placeholder,81,female,english,5d56c73e020f3c00015e5a48,Describe these results of <strong>Riverside</strong> so as to make it appear as if there is a <strong>low</strong> success rate without lying.,some of the students failed completely,12|12|12|0|0,In this exam,of the students got,of the questions,.,"%{""instances"" => [%{""n_col"" => 12, ""rows"" => [12, 12, 12, 0, 0]}], ""number"" => 9, ""sequence"" => [""AAADD"", ""AAAAD"", ""AAABD"", ""AAACD""], ""truth_table"" => []}",9,Tue Jan 28 2020 16:01:57 GMT+0000 (Greenwich Mean Time),1580227317234,1|1|1|1|1|1|1|1|1|1|1|1|1|1|1|1|1|1|1|1|1|1|1|1|1|1|1|1|1|1|1|1|1|1|1|1|0|0|0|0|0|0|0|0|0|0|0|0|0|0|0|0|0|0|0|0|0|0|0|0,13.256866666666667,main_trials,8
11625,,6833,37,all|most|some|none,all|most|some|none,right|wrong,5,,low,placeholder,Higher Degree,1580228112646,placeholder,81,female,english,5d56c73e020f3c00015e5a48,Describe these results of <strong>Riverside</strong> so as to make it appear as if there is a <strong>low</strong> success rate without lying.,most of the students failed completely,12|12|0|0|0,In this exam,of the students got,of the questions,.,"%{""instances"" => [%{""n_col"" => 12, ""rows"" => [12, 12, 0, 0, 0]}], ""number"" => 4, ""sequence"" => [""ADDDD"", ""AADDD"", ""ABDDD"", ""ACDDD""], ""truth_table"" => []}",4,Tue Jan 28 2020 16:01:57 GMT+0000 (Greenwich Mean Time),1580227317234,1|1|1|1|1|1|1|1|1|1|1|1|1|1|1|1|1|1|1|1|1|1|1|1|0|0|0|0|0|0|0|0|0|0|0|0|0|0|0|0|0|0|0|0|0|0|0|0|0|0|0|0|0|0|0|0|0|0|0|0,13.256866666666667,main_trials,9
11625,,11913,37,all|most|some|none,all|most|some|none,right|wrong,5,,high,placeholder,Higher Degree,1580228112646,placeholder,81,female,english,5d56c73e020f3c00015e5a48,Describe these results of <strong>Green Valley</strong> so as to make it appear as if there is a <strong>high</strong> success rate without lying.,most of the questions were answered correctly with some students getting full marks,12|12|9|3|3,In this exam,of the students got,of the questions,.,"%{""instances"" => [%{""n_col"" => 12, ""rows"" => [12, 12, 9, 3, 3]}], ""number"" => 15, ""sequence"" => [""ABBBC"", ""ABBCC"", ""AABCC"", ""AABBC""], ""truth_table"" => []}",15,Tue Jan 28 2020 16:01:57 GMT+0000 (Greenwich Mean Time),1580227317234,1|1|1|1|1|1|1|1|1|1|1|1|1|1|1|1|1|1|1|1|1|1|1|1|1|1|1|1|1|1|1|1|1|0|0|0|1|1|1|0|0|0|0|0|0|0|0|0|1|1|1|0|0|0|0|0|0|0|0|0,13.256866666666667,main_trials,10
11625,,11657,37,all|most|some|none,all|most|some|none,right|wrong,5,,high,placeholder,Higher Degree,1580228112646,placeholder,81,female,english,5d56c73e020f3c00015e5a48,Describe these results of <strong>Green Valley</strong> so as to make it appear as if there is a <strong>high</strong> success rate without lying.,there are two star students that got full marks,12|12|3|0|0,In this exam,of the students got,of the questions,.,"%{""instances"" => [%{""n_col"" => 12, ""rows"" => [12, 12, 3, 0, 0]}], ""number"" => 1, ""sequence"" => [""ACCCD"", ""ACCDD"", ""AACDD"", ""AACCD"", ""ABCDD"", ""ABCCD""], ""truth_table"" => []}",1,Tue Jan 28 2020 16:01:57 GMT+0000 (Greenwich Mean Time),1580227317234,1|1|1|1|1|1|1|1|1|1|1|1|1|1|1|1|1|1|1|1|1|1|1|1|1|1|1|0|0|0|0|0|0|0|0|0|0|0|0|0|0|0|0|0|0|0|0|0|0|0|0|0|0|0|0|0|0|0|0|0,13.256866666666667,main_trials,11
11629,,40005,33,all|most|some|none,all|most|some|none,right|wrong,5,,high,placeholder,Higher Degree,1580231200198,placeholder,81,female,English,5d544c78ee3a4700164ee73f,Describe these results of <strong>Green Valley</strong> so as to make it appear as if there is a <strong>high</strong> success rate without lying.,two thirds of students got this correct.,9|9|3|0|0,In this exam,of the students got,of the questions,.,"%{""instances"" => [%{""n_col"" => 12, ""rows"" => [9, 9, 3, 0, 0]}], ""number"" => 6, ""sequence"" => [""BCCCD"", ""BCCDD"", ""BBCDD"", ""BBCCD""], ""truth_table"" => []}",6,Tue Jan 28 2020 16:47:39 GMT+0000 (Greenwich Mean Time),1580230059578,1|1|1|1|1|1|1|1|1|0|0|0|1|1|1|1|1|1|1|1|1|0|0|0|1|1|1|0|0|0|0|0|0|0|0|0|0|0|0|0|0|0|0|0|0|0|0|0|0|0|0|0|0|0|0|0|0|0|0|0,19.01033333333333,main_trials,1
11629,,274529,33,all|most|some|none,all|most|some|none,right|wrong,5,,high,placeholder,Higher Degree,1580231200198,placeholder,81,female,English,5d544c78ee3a4700164ee73f,Describe these results of <strong>Green Valley</strong> so as to make it appear as if there is a <strong>high</strong> success rate without lying.,just less than half answered this correctly.,9|9|0|0|0,In this exam,of the students got,of the questions,.,"%{""instances"" => [%{""n_col"" => 12, ""rows"" => [9, 9, 0, 0, 0]}], ""number"" => 3, ""sequence"" => [""BDDDD"", ""BBDDD"", ""BCDDD""], ""truth_table"" => []}",3,Tue Jan 28 2020 16:47:39 GMT+0000 (Greenwich Mean Time),1580230059578,1|1|1|1|1|1|1|1|1|0|0|0|1|1|1|1|1|1|1|1|1|0|0|0|0|0|0|0|0|0|0|0|0|0|0|0|0|0|0|0|0|0|0|0|0|0|0|0|0|0|0|0|0|0|0|0|0|0|0|0,19.01033333333333,main_trials,2
11629,,33756,33,all|most|some|none,all|most|some|none,right|wrong,5,,low,placeholder,Higher Degree,1580231200198,placeholder,81,female,English,5d544c78ee3a4700164ee73f,Describe these results of <strong>Riverside</strong> so as to make it appear as if there is a <strong>low</strong> success rate without lying.,around half of students struggled with this test.,12|12|9|3|3,In this exam,of the students got,of the questions,.,"%{""instances"" => [%{""n_col"" => 12, ""rows"" => [12, 12, 9, 3, 3]}], ""number"" => 15, ""sequence"" => [""ABBBC"", ""ABBCC"", ""AABCC"", ""AABBC""], ""truth_table"" => []}",15,Tue Jan 28 2020 16:47:39 GMT+0000 (Greenwich Mean Time),1580230059578,1|1|1|1|1|1|1|1|1|1|1|1|1|1|1|1|1|1|1|1|1|1|1|1|1|1|1|1|1|1|1|1|1|0|0|0|1|1|1|0|0|0|0|0|0|0|0|0|1|1|1|0|0|0|0|0|0|0|0|0,19.01033333333333,main_trials,3
11629,,143154,33,all|most|some|none,all|most|some|none,right|wrong,5,,low,placeholder,Higher Degree,1580231200198,placeholder,81,female,English,5d544c78ee3a4700164ee73f,Describe these results of <strong>Riverside</strong> so as to make it appear as if there is a <strong>low</strong> success rate without lying.,"all students experienced difficulty, with only 3 getting some uestions correct.",9|9|9|0|0,In this exam,of the students got,of the questions,.,"%{""instances"" => [%{""n_col"" => 12, ""rows"" => [9, 9, 9, 0, 0]}], ""number"" => 7, ""sequence"" => [""BBBDD"", ""BBBBD"", ""BBBCD""], ""truth_table"" => []}",7,Tue Jan 28 2020 16:47:39 GMT+0000 (Greenwich Mean Time),1580230059578,1|1|1|1|1|1|1|1|1|0|0|0|1|1|1|1|1|1|1|1|1|0|0|0|1|1|1|1|1|1|1|1|1|0|0|0|0|0|0|0|0|0|0|0|0|0|0|0|0|0|0|0|0|0|0|0|0|0|0|0,19.01033333333333,main_trials,4
11629,,18077,33,all|most|some|none,all|most|some|none,right|wrong,5,,low,placeholder,Higher Degree,1580231200198,placeholder,81,female,English,5d544c78ee3a4700164ee73f,Describe these results of <strong>Riverside</strong> so as to make it appear as if there is a <strong>low</strong> success rate without lying.,less than half of students found success in this test.,12|12|3|0|0,In this exam,of the students got,of the questions,.,"%{""instances"" => [%{""n_col"" => 12, ""rows"" => [12, 12, 3, 0, 0]}], ""number"" => 1, ""sequence"" => [""ACCCD"", ""ACCDD"", ""AACDD"", ""AACCD"", ""ABCDD"", ""ABCCD""], ""truth_table"" => []}",1,Tue Jan 28 2020 16:47:39 GMT+0000 (Greenwich Mean Time),1580230059578,1|1|1|1|1|1|1|1|1|1|1|1|1|1|1|1|1|1|1|1|1|1|1|1|1|1|1|0|0|0|0|0|0|0|0|0|0|0|0|0|0|0|0|0|0|0|0|0|0|0|0|0|0|0|0|0|0|0|0|0,19.01033333333333,main_trials,5
11629,,28221,33,all|most|some|none,all|most|some|none,right|wrong,5,,high,placeholder,Higher Degree,1580231200198,placeholder,81,female,English,5d544c78ee3a4700164ee73f,Describe these results of <strong>Green Valley</strong> so as to make it appear as if there is a <strong>high</strong> success rate without lying.,all students got 100% for the first part of the test.,12|12|3|3|3,In this exam,of the students got,of the questions,.,"%{""instances"" => [%{""n_col"" => 12, ""rows"" => [12, 12, 3, 3, 3]}], ""number"" => 13, ""sequence"" => [""ACCCC"", ""AACCC"", ""ABCCC""], ""truth_table"" => []}",13,Tue Jan 28 2020 16:47:39 GMT+0000 (Greenwich Mean Time),1580230059578,1|1|1|1|1|1|1|1|1|1|1|1|1|1|1|1|1|1|1|1|1|1|1|1|1|1|1|0|0|0|0|0|0|0|0|0|1|1|1|0|0|0|0|0|0|0|0|0|1|1|1|0|0|0|0|0|0|0|0|0,19.01033333333333,main_trials,6
11629,,20582,33,all|most|some|none,all|most|some|none,right|wrong,5,,high,placeholder,Higher Degree,1580231200198,placeholder,81,female,English,5d544c78ee3a4700164ee73f,Describe these results of <strong>Green Valley</strong> so as to make it appear as if there is a <strong>high</strong> success rate without lying.,just short of 100% success rate for these students.,12|12|9|9|9,In this exam,of the students got,of the questions,.,"%{""instances"" => [%{""n_col"" => 12, ""rows"" => '\f\f\t\t\t'}], ""number"" => 18, ""sequence"" => [""ABBBB"", ""AABBB""], ""truth_table"" => []}",18,Tue Jan 28 2020 16:47:39 GMT+0000 (Greenwich Mean Time),1580230059578,1|1|1|1|1|1|1|1|1|1|1|1|1|1|1|1|1|1|1|1|1|1|1|1|1|1|1|1|1|1|1|1|1|0|0|0|1|1|1|1|1|1|1|1|1|0|0|0|1|1|1|1|1|1|1|1|1|0|0|0,19.01033333333333,main_trials,7
11629,,138010,33,all|most|some|none,all|most|some|none,right|wrong,5,,low,placeholder,Higher Degree,1580231200198,placeholder,81,female,English,5d544c78ee3a4700164ee73f,Describe these results of <strong>Riverside</strong> so as to make it appear as if there is a <strong>low</strong> success rate without lying.,over half of students got 0%.,12|12|0|0|0,In this exam,of the students got,of the questions,.,"%{""instances"" => [%{""n_col"" => 12, ""rows"" => [12, 12, 0, 0, 0]}], ""number"" => 4, ""sequence"" => [""ADDDD"", ""AADDD"", ""ABDDD"", ""ACDDD""], ""truth_table"" => []}",4,Tue Jan 28 2020 16:47:39 GMT+0000 (Greenwich Mean Time),1580230059578,1|1|1|1|1|1|1|1|1|1|1|1|1|1|1|1|1|1|1|1|1|1|1|1|0|0|0|0|0|0|0|0|0|0|0|0|0|0|0|0|0|0|0|0|0|0|0|0|0|0|0|0|0|0|0|0|0|0|0|0,19.01033333333333,main_trials,8
11629,,75371,33,all|most|some|none,all|most|some|none,right|wrong,5,,low,placeholder,Higher Degree,1580231200198,placeholder,81,female,English,5d544c78ee3a4700164ee73f,Describe these results of <strong>Riverside</strong> so as to make it appear as if there is a <strong>low</strong> success rate without lying.,all questions answered incorrectly apart from 2 students getting 3 answers correct each.,3|3|0|0|0,In this exam,of the students got,of the questions,.,"%{""instances"" => [%{""n_col"" => 12, ""rows"" => [3, 3, 0, 0, 0]}], ""number"" => 2, ""sequence"" => [""CDDDD"", ""CCDDD""], ""truth_table"" => []}",2,Tue Jan 28 2020 16:47:39 GMT+0000 (Greenwich Mean Time),1580230059578,1|1|1|0|0|0|0|0|0|0|0|0|1|1|1|0|0|0|0|0|0|0|0|0|0|0|0|0|0|0|0|0|0|0|0|0|0|0|0|0|0|0|0|0|0|0|0|0|0|0|0|0|0|0|0|0|0|0|0|0,19.01033333333333,main_trials,9
11629,,34617,33,all|most|some|none,all|most|some|none,right|wrong,5,,low,placeholder,Higher Degree,1580231200198,placeholder,81,female,English,5d544c78ee3a4700164ee73f,Describe these results of <strong>Riverside</strong> so as to make it appear as if there is a <strong>low</strong> success rate without lying.,Only just over half of students scored some correct answers.,9|9|9|3|3,In this exam,of the students got,of the questions,.,"%{""instances"" => [%{""n_col"" => 12, ""rows"" => [9, 9, 9, 3, 3]}], ""number"" => 14, ""sequence"" => [""BBBCC"", ""BBBBC""], ""truth_table"" => []}",14,Tue Jan 28 2020 16:47:39 GMT+0000 (Greenwich Mean Time),1580230059578,1|1|1|1|1|1|1|1|1|0|0|0|1|1|1|1|1|1|1|1|1|0|0|0|1|1|1|1|1|1|1|1|1|0|0|0|1|1|1|0|0|0|0|0|0|0|0|0|1|1|1|0|0|0|0|0|0|0|0|0,19.01033333333333,main_trials,10
11629,,24613,33,all|most|some|none,all|most|some|none,right|wrong,5,,high,placeholder,Higher Degree,1580231200198,placeholder,81,female,English,5d544c78ee3a4700164ee73f,Describe these results of <strong>Green Valley</strong> so as to make it appear as if there is a <strong>high</strong> success rate without lying.,2 thirds of students had some success in the tests.,3|3|3|0|0,In this exam,of the students got,of the questions,.,"%{""instances"" => [%{""n_col"" => 12, ""rows"" => [3, 3, 3, 0, 0]}], ""number"" => 5, ""sequence"" => [""CCCDD"", ""CCCCD""], ""truth_table"" => []}",5,Tue Jan 28 2020 16:47:39 GMT+0000 (Greenwich Mean Time),1580230059578,1|1|1|0|0|0|0|0|0|0|0|0|1|1|1|0|0|0|0|0|0|0|0|0|1|1|1|0|0|0|0|0|0|0|0|0|0|0|0|0|0|0|0|0|0|0|0|0|0|0|0|0|0|0|0|0|0|0|0|0,19.01033333333333,main_trials,11
11644,,256581,39,all|most|some|none,all|most|some|none,right|wrong,5,,low,placeholder,Higher Degree,1580300989483,placeholder,81,male,English,5dc7248de4f0ff518d0cfe90,Describe these results of <strong>Riverside</strong> so as to make it appear as if there is a <strong>low</strong> success rate without lying.,As i see Lisa and Rebecca got full mark. Daniel has done  3 wrong answer. Whereas  Johann and Chris have answered only 3 question properly. So Lisa And Rebecca are good Students.,12|12|9|3|3,In this exam,of the students got,of the questions,.,"%{""instances"" => [%{""n_col"" => 12, ""rows"" => [12, 12, 9, 3, 3]}], ""number"" => 15, ""sequence"" => [""ABBBC"", ""ABBCC"", ""AABCC"", ""AABBC""], ""truth_table"" => []}",15,Wed Jan 29 2020 18:05:41 GMT+0600 (Bangladesh Standard Time),1580299541530,1|1|1|1|1|1|1|1|1|1|1|1|1|1|1|1|1|1|1|1|1|1|1|1|1|1|1|1|1|1|1|1|1|0|0|0|1|1|1|0|0|0|0|0|0|0|0|0|1|1|1|0|0|0|0|0|0|0|0|0,24.13255,main_trials,1
11644,,53127,39,all|most|some|none,all|most|some|none,right|wrong,5,,low,placeholder,Higher Degree,1580300989483,placeholder,81,male,English,5dc7248de4f0ff518d0cfe90,Describe these results of <strong>Riverside</strong> so as to make it appear as if there is a <strong>low</strong> success rate without lying.,According The table Thomas And Alex are better than Others.,9|9|3|3|3,In this exam,of the students got,of the questions,.,"%{""instances"" => [%{""n_col"" => 12, ""rows"" => [9, 9, 3, 3, 3]}], ""number"" => 12, ""sequence"" => [""BCCCC"", ""BBCCC""], ""truth_table"" => []}",12,Wed Jan 29 2020 18:05:41 GMT+0600 (Bangladesh Standard Time),1580299541530,1|1|1|1|1|1|1|1|1|0|0|0|1|1|1|1|1|1|1|1|1|0|0|0|1|1|1|0|0|0|0|0|0|0|0|0|1|1|1|0|0|0|0|0|0|0|0|0|1|1|1|0|0|0|0|0|0|0|0|0,24.13255,main_trials,2
11644,,103106,39,all|most|some|none,all|most|some|none,right|wrong,5,,high,placeholder,Higher Degree,1580300989483,placeholder,81,male,English,5dc7248de4f0ff518d0cfe90,Describe these results of <strong>Green Valley</strong> so as to make it appear as if there is a <strong>high</strong> success rate without lying.,According the table Tim and Theresa Are The worst student.,3|3|3|0|0,In this exam,of the students got,of the questions,.,"%{""instances"" => [%{""n_col"" => 12, ""rows"" => [3, 3, 3, 0, 0]}], ""number"" => 5, ""sequence"" => [""CCCDD"", ""CCCCD""], ""truth_table"" => []}",5,Wed Jan 29 2020 18:05:41 GMT+0600 (Bangladesh Standard Time),1580299541530,1|1|1|0|0|0|0|0|0|0|0|0|1|1|1|0|0|0|0|0|0|0|0|0|1|1|1|0|0|0|0|0|0|0|0|0|0|0|0|0|0|0|0|0|0|0|0|0|0|0|0|0|0|0|0|0|0|0|0|0,24.13255,main_trials,3
11644,,76481,39,all|most|some|none,all|most|some|none,right|wrong,5,,high,placeholder,Higher Degree,1580300989483,placeholder,81,male,English,5dc7248de4f0ff518d0cfe90,Describe these results of <strong>Green Valley</strong> so as to make it appear as if there is a <strong>high</strong> success rate without lying.,"According to the answer table Julian, Julia and Tim  have done well.",12|12|12|0|0,In this exam,of the students got,of the questions,.,"%{""instances"" => [%{""n_col"" => 12, ""rows"" => [12, 12, 12, 0, 0]}], ""number"" => 9, ""sequence"" => [""AAADD"", ""AAAAD"", ""AAABD"", ""AAACD""], ""truth_table"" => []}",9,Wed Jan 29 2020 18:05:41 GMT+0600 (Bangladesh Standard Time),1580299541530,1|1|1|1|1|1|1|1|1|1|1|1|1|1|1|1|1|1|1|1|1|1|1|1|1|1|1|1|1|1|1|1|1|1|1|1|0|0|0|0|0|0|0|0|0|0|0|0|0|0|0|0|0|0|0|0|0|0|0|0,24.13255,main_trials,4
11644,,60295,39,all|most|some|none,all|most|some|none,right|wrong,5,,high,placeholder,Higher Degree,1580300989483,placeholder,81,male,English,5dc7248de4f0ff518d0cfe90,Describe these results of <strong>Green Valley</strong> so as to make it appear as if there is a <strong>high</strong> success rate without lying.,It seems from the table that Amy and Susanne Are good.,12|12|0|0|0,In this exam,of the students got,of the questions,.,"%{""instances"" => [%{""n_col"" => 12, ""rows"" => [12, 12, 0, 0, 0]}], ""number"" => 4, ""sequence"" => [""ADDDD"", ""AADDD"", ""ABDDD"", ""ACDDD""], ""truth_table"" => []}",4,Wed Jan 29 2020 18:05:41 GMT+0600 (Bangladesh Standard Time),1580299541530,1|1|1|1|1|1|1|1|1|1|1|1|1|1|1|1|1|1|1|1|1|1|1|1|0|0|0|0|0|0|0|0|0|0|0|0|0|0|0|0|0|0|0|0|0|0|0|0|0|0|0|0|0|0|0|0|0|0|0|0,24.13255,main_trials,5
11644,,51376,39,all|most|some|none,all|most|some|none,right|wrong,5,,low,placeholder,Higher Degree,1580300989483,placeholder,81,male,English,5dc7248de4f0ff518d0cfe90,Describe these results of <strong>Riverside</strong> so as to make it appear as if there is a <strong>low</strong> success rate without lying.,Tim and Lesly is nothing for Good.,9|9|9|3|3,In this exam,of the students got,of the questions,.,"%{""instances"" => [%{""n_col"" => 12, ""rows"" => [9, 9, 9, 3, 3]}], ""number"" => 14, ""sequence"" => [""BBBCC"", ""BBBBC""], ""truth_table"" => []}",14,Wed Jan 29 2020 18:05:41 GMT+0600 (Bangladesh Standard Time),1580299541530,1|1|1|1|1|1|1|1|1|0|0|0|1|1|1|1|1|1|1|1|1|0|0|0|1|1|1|1|1|1|1|1|1|0|0|0|1|1|1|0|0|0|0|0|0|0|0|0|1|1|1|0|0|0|0|0|0|0|0|0,24.13255,main_trials,6
11644,,42454,39,all|most|some|none,all|most|some|none,right|wrong,5,,high,placeholder,Higher Degree,1580300989483,placeholder,81,male,English,5dc7248de4f0ff518d0cfe90,Describe these results of <strong>Green Valley</strong> so as to make it appear as if there is a <strong>high</strong> success rate without lying.,According to the answer table All students have done well.,12|12|12|12|12,In this exam,of the students got,of the questions,.,"%{""instances"" => [%{""n_col"" => 12, ""rows"" => '\f\f\f\f\f'}], ""number"" => 20, ""sequence"" => [""AAAAA""], ""truth_table"" => []}",20,Wed Jan 29 2020 18:05:41 GMT+0600 (Bangladesh Standard Time),1580299541530,1|1|1|1|1|1|1|1|1|1|1|1|1|1|1|1|1|1|1|1|1|1|1|1|1|1|1|1|1|1|1|1|1|1|1|1|1|1|1|1|1|1|1|1|1|1|1|1|1|1|1|1|1|1|1|1|1|1|1|1,24.13255,main_trials,7
11644,,40668,39,all|most|some|none,all|most|some|none,right|wrong,5,,high,placeholder,Higher Degree,1580300989483,placeholder,81,male,English,5dc7248de4f0ff518d0cfe90,Describe these results of <strong>Green Valley</strong> so as to make it appear as if there is a <strong>high</strong> success rate without lying.,Alex and Julian much better than others.,9|9|0|0|0,In this exam,of the students got,of the questions,.,"%{""instances"" => [%{""n_col"" => 12, ""rows"" => [9, 9, 0, 0, 0]}], ""number"" => 3, ""sequence"" => [""BDDDD"", ""BBDDD"", ""BCDDD""], ""truth_table"" => []}",3,Wed Jan 29 2020 18:05:41 GMT+0600 (Bangladesh Standard Time),1580299541530,1|1|1|1|1|1|1|1|1|0|0|0|1|1|1|1|1|1|1|1|1|0|0|0|0|0|0|0|0|0|0|0|0|0|0|0|0|0|0|0|0|0|0|0|0|0|0|0|0|0|0|0|0|0|0|0|0|0|0|0,24.13255,main_trials,8
11644,,69026,39,all|most|some|none,all|most|some|none,right|wrong,5,,high,placeholder,Higher Degree,1580300989483,placeholder,81,male,English,5dc7248de4f0ff518d0cfe90,Describe these results of <strong>Green Valley</strong> so as to make it appear as if there is a <strong>high</strong> success rate without lying.,According to the Table jan Tim and Johann have done well.,12|12|12|3|3,In this exam,of the students got,of the questions,.,"%{""instances"" => [%{""n_col"" => 12, ""rows"" => [12, 12, 12, 3, 3]}], ""number"" => 16, ""sequence"" => [""AAACC"", ""AAAAC"", ""AAABC""], ""truth_table"" => []}",16,Wed Jan 29 2020 18:05:41 GMT+0600 (Bangladesh Standard Time),1580299541530,1|1|1|1|1|1|1|1|1|1|1|1|1|1|1|1|1|1|1|1|1|1|1|1|1|1|1|1|1|1|1|1|1|1|1|1|1|1|1|0|0|0|0|0|0|0|0|0|1|1|1|0|0|0|0|0|0|0|0|0,24.13255,main_trials,9
11644,,100151,39,all|most|some|none,all|most|some|none,right|wrong,5,,high,placeholder,Higher Degree,1580300989483,placeholder,81,male,English,5dc7248de4f0ff518d0cfe90,Describe these results of <strong>Green Valley</strong> so as to make it appear as if there is a <strong>high</strong> success rate without lying.,According to the table Rebecca and Amy are good for nothing.,12|12|9|0|0,In this exam,of the students got,of the questions,.,"%{""instances"" => [%{""n_col"" => 12, ""rows"" => [12, 12, 9, 0, 0]}], ""number"" => 8, ""sequence"" => [""ABBBD"", ""ABBDD"", ""AABDD"", ""ABBBD"", ""ABBCD"", ""AABCD""], ""truth_table"" => []}",8,Wed Jan 29 2020 18:05:41 GMT+0600 (Bangladesh Standard Time),1580299541530,1|1|1|1|1|1|1|1|1|1|1|1|1|1|1|1|1|1|1|1|1|1|1|1|1|1|1|1|1|1|1|1|1|0|0|0|0|0|0|0|0|0|0|0|0|0|0|0|0|0|0|0|0|0|0|0|0|0|0|0,24.13255,main_trials,10
11644,,32713,39,all|most|some|none,all|most|some|none,right|wrong,5,,low,placeholder,Higher Degree,1580300989483,placeholder,81,male,English,5dc7248de4f0ff518d0cfe90,Describe these results of <strong>Riverside</strong> so as to make it appear as if there is a <strong>low</strong> success rate without lying.,According to the table all have done very bad.,0|0|0|0|0,In this exam,of the students got,of the questions,.,"%{""instances"" => [%{""n_col"" => 12, ""rows"" => [0, 0, 0, 0, 0]}], ""number"" => 10, ""sequence"" => [""DDDDD""], ""truth_table"" => []}",10,Wed Jan 29 2020 18:05:41 GMT+0600 (Bangladesh Standard Time),1580299541530,0|0|0|0|0|0|0|0|0|0|0|0|0|0|0|0|0|0|0|0|0|0|0|0|0|0|0|0|0|0|0|0|0|0|0|0|0|0|0|0|0|0|0|0|0|0|0|0|0|0|0|0|0|0|0|0|0|0|0|0,24.13255,main_trials,11
11642,,144367,25,all|most|some|none,all|most|some|none,right|wrong,5,,high,placeholder,Graduated High School,1580300928111,placeholder,81,male,English,5e1f0ebee8ec0723d7e622c7,Describe these results of <strong>Green Valley</strong> so as to make it appear as if there is a <strong>high</strong> success rate without lying.,"Though the students struggled, with more revising, all student have a chance of achieving full marks.",0|0|0|0|0,In this exam,of the students got,of the questions,.,"%{""instances"" => [%{""n_col"" => 12, ""rows"" => [0, 0, 0, 0, 0]}], ""number"" => 10, ""sequence"" => [""DDDDD""], ""truth_table"" => []}",10,Wed Jan 29 2020 12:03:24 GMT+0000 (GMT),1580299404389,0|0|0|0|0|0|0|0|0|0|0|0|0|0|0|0|0|0|0|0|0|0|0|0|0|0|0|0|0|0|0|0|0|0|0|0|0|0|0|0|0|0|0|0|0|0|0|0|0|0|0|0|0|0|0|0|0|0|0|0,25.395366666666668,main_trials,1
11642,,60944,25,all|most|some|none,all|most|some|none,right|wrong,5,,high,placeholder,Graduated High School,1580300928111,placeholder,81,male,English,5e1f0ebee8ec0723d7e622c7,Describe these results of <strong>Green Valley</strong> so as to make it appear as if there is a <strong>high</strong> success rate without lying.,The vast majority of students achieve the highest degree of success.,12|12|12|0|0,In this exam,of the students got,of the questions,.,"%{""instances"" => [%{""n_col"" => 12, ""rows"" => [12, 12, 12, 0, 0]}], ""number"" => 9, ""sequence"" => [""AAADD"", ""AAAAD"", ""AAABD"", ""AAACD""], ""truth_table"" => []}",9,Wed Jan 29 2020 12:03:24 GMT+0000 (GMT),1580299404389,1|1|1|1|1|1|1|1|1|1|1|1|1|1|1|1|1|1|1|1|1|1|1|1|1|1|1|1|1|1|1|1|1|1|1|1|0|0|0|0|0|0|0|0|0|0|0|0|0|0|0|0|0|0|0|0|0|0|0|0,25.395366666666668,main_trials,2
11642,,120589,25,all|most|some|none,all|most|some|none,right|wrong,5,,high,placeholder,Graduated High School,1580300928111,placeholder,81,male,English,5e1f0ebee8ec0723d7e622c7,Describe these results of <strong>Green Valley</strong> so as to make it appear as if there is a <strong>high</strong> success rate without lying.,"The majority of students showed an average understanding that, with further study, could increase the chances of success significantly.",3|3|3|0|0,In this exam,of the students got,of the questions,.,"%{""instances"" => [%{""n_col"" => 12, ""rows"" => [3, 3, 3, 0, 0]}], ""number"" => 5, ""sequence"" => [""CCCDD"", ""CCCCD""], ""truth_table"" => []}",5,Wed Jan 29 2020 12:03:24 GMT+0000 (GMT),1580299404389,1|1|1|0|0|0|0|0|0|0|0|0|1|1|1|0|0|0|0|0|0|0|0|0|1|1|1|0|0|0|0|0|0|0|0|0|0|0|0|0|0|0|0|0|0|0|0|0|0|0|0|0|0|0|0|0|0|0|0|0,25.395366666666668,main_trials,3
11642,,63191,25,all|most|some|none,all|most|some|none,right|wrong,5,,high,placeholder,Graduated High School,1580300928111,placeholder,81,male,English,5e1f0ebee8ec0723d7e622c7,Describe these results of <strong>Green Valley</strong> so as to make it appear as if there is a <strong>high</strong> success rate without lying.,All students show an average to high success pattern.,9|9|9|3|3,In this exam,of the students got,of the questions,.,"%{""instances"" => [%{""n_col"" => 12, ""rows"" => [9, 9, 9, 3, 3]}], ""number"" => 14, ""sequence"" => [""BBBCC"", ""BBBBC""], ""truth_table"" => []}",14,Wed Jan 29 2020 12:03:24 GMT+0000 (GMT),1580299404389,1|1|1|1|1|1|1|1|1|0|0|0|1|1|1|1|1|1|1|1|1|0|0|0|1|1|1|1|1|1|1|1|1|0|0|0|1|1|1|0|0|0|0|0|0|0|0|0|1|1|1|0|0|0|0|0|0|0|0|0,25.395366666666668,main_trials,4
11642,,154200,25,all|most|some|none,all|most|some|none,right|wrong,5,,low,placeholder,Graduated High School,1580300928111,placeholder,81,male,English,5e1f0ebee8ec0723d7e622c7,Describe these results of <strong>Riverside</strong> so as to make it appear as if there is a <strong>low</strong> success rate without lying.,"From these results, the students show a distinct lack of aptitude, with only a few achieving low marks.",3|3|0|0|0,In this exam,of the students got,of the questions,.,"%{""instances"" => [%{""n_col"" => 12, ""rows"" => [3, 3, 0, 0, 0]}], ""number"" => 2, ""sequence"" => [""CDDDD"", ""CCDDD""], ""truth_table"" => []}",2,Wed Jan 29 2020 12:03:24 GMT+0000 (GMT),1580299404389,1|1|1|0|0|0|0|0|0|0|0|0|1|1|1|0|0|0|0|0|0|0|0|0|0|0|0|0|0|0|0|0|0|0|0|0|0|0|0|0|0|0|0|0|0|0|0|0|0|0|0|0|0|0|0|0|0|0|0|0,25.395366666666668,main_trials,5
11642,,87429,25,all|most|some|none,all|most|some|none,right|wrong,5,,low,placeholder,Graduated High School,1580300928111,placeholder,81,male,English,5e1f0ebee8ec0723d7e622c7,Describe these results of <strong>Riverside</strong> so as to make it appear as if there is a <strong>low</strong> success rate without lying.,Many of the students failed to achieve any marks whatsoever.,9|9|0|0|0,In this exam,of the students got,of the questions,.,"%{""instances"" => [%{""n_col"" => 12, ""rows"" => [9, 9, 0, 0, 0]}], ""number"" => 3, ""sequence"" => [""BDDDD"", ""BBDDD"", ""BCDDD""], ""truth_table"" => []}",3,Wed Jan 29 2020 12:03:24 GMT+0000 (GMT),1580299404389,1|1|1|1|1|1|1|1|1|0|0|0|1|1|1|1|1|1|1|1|1|0|0|0|0|0|0|0|0|0|0|0|0|0|0|0|0|0|0|0|0|0|0|0|0|0|0|0|0|0|0|0|0|0|0|0|0|0|0|0,25.395366666666668,main_trials,6
11642,,132410,25,all|most|some|none,all|most|some|none,right|wrong,5,,low,placeholder,Graduated High School,1580300928111,placeholder,81,male,English,5e1f0ebee8ec0723d7e622c7,Describe these results of <strong>Riverside</strong> so as to make it appear as if there is a <strong>low</strong> success rate without lying.,"Though results were good enough for most, several students struggled, suggesting a lack of adequate revising.",12|12|12|9|9,In this exam,of the students got,of the questions,.,"%{""instances"" => [%{""n_col"" => 12, ""rows"" => '\f\f\f\t\t'}], ""number"" => 19, ""sequence"" => [""AAABB"", ""AAAAB""], ""truth_table"" => []}",19,Wed Jan 29 2020 12:03:24 GMT+0000 (GMT),1580299404389,1|1|1|1|1|1|1|1|1|1|1|1|1|1|1|1|1|1|1|1|1|1|1|1|1|1|1|1|1|1|1|1|1|1|1|1|1|1|1|1|1|1|1|1|1|0|0|0|1|1|1|1|1|1|1|1|1|0|0|0,25.395366666666668,main_trials,7
11642,,92500,25,all|most|some|none,all|most|some|none,right|wrong,5,,low,placeholder,Graduated High School,1580300928111,placeholder,81,male,English,5e1f0ebee8ec0723d7e622c7,Describe these results of <strong>Riverside</strong> so as to make it appear as if there is a <strong>low</strong> success rate without lying.,"All students performed well, but whether these results can be maintained in further exams remains to be seen.",12|12|12|12|12,In this exam,of the students got,of the questions,.,"%{""instances"" => [%{""n_col"" => 12, ""rows"" => '\f\f\f\f\f'}], ""number"" => 20, ""sequence"" => [""AAAAA""], ""truth_table"" => []}",20,Wed Jan 29 2020 12:03:24 GMT+0000 (GMT),1580299404389,1|1|1|1|1|1|1|1|1|1|1|1|1|1|1|1|1|1|1|1|1|1|1|1|1|1|1|1|1|1|1|1|1|1|1|1|1|1|1|1|1|1|1|1|1|1|1|1|1|1|1|1|1|1|1|1|1|1|1|1,25.395366666666668,main_trials,8
11642,,90650,25,all|most|some|none,all|most|some|none,right|wrong,5,,high,placeholder,Graduated High School,1580300928111,placeholder,81,male,English,5e1f0ebee8ec0723d7e622c7,Describe these results of <strong>Green Valley</strong> so as to make it appear as if there is a <strong>high</strong> success rate without lying.,"A minority of students struggled, but the vast majority of participants achieved impressive marks.",12|12|9|0|0,In this exam,of the students got,of the questions,.,"%{""instances"" => [%{""n_col"" => 12, ""rows"" => [12, 12, 9, 0, 0]}], ""number"" => 8, ""sequence"" => [""ABBBD"", ""ABBDD"", ""AABDD"", ""ABBBD"", ""ABBCD"", ""AABCD""], ""truth_table"" => []}",8,Wed Jan 29 2020 12:03:24 GMT+0000 (GMT),1580299404389,1|1|1|1|1|1|1|1|1|1|1|1|1|1|1|1|1|1|1|1|1|1|1|1|1|1|1|1|1|1|1|1|1|0|0|0|0|0|0|0|0|0|0|0|0|0|0|0|0|0|0|0|0|0|0|0|0|0|0|0,25.395366666666668,main_trials,9
11642,,163026,25,all|most|some|none,all|most|some|none,right|wrong,5,,low,placeholder,Graduated High School,1580300928111,placeholder,81,male,English,5e1f0ebee8ec0723d7e622c7,Describe these results of <strong>Riverside</strong> so as to make it appear as if there is a <strong>low</strong> success rate without lying.,"Results were passable for the majority, but all struggled with the questions, including two achieving zero marks.",9|9|9|0|0,In this exam,of the students got,of the questions,.,"%{""instances"" => [%{""n_col"" => 12, ""rows"" => [9, 9, 9, 0, 0]}], ""number"" => 7, ""sequence"" => [""BBBDD"", ""BBBBD"", ""BBBCD""], ""truth_table"" => []}",7,Wed Jan 29 2020 12:03:24 GMT+0000 (GMT),1580299404389,1|1|1|1|1|1|1|1|1|0|0|0|1|1|1|1|1|1|1|1|1|0|0|0|1|1|1|1|1|1|1|1|1|0|0|0|0|0|0|0|0|0|0|0|0|0|0|0|0|0|0|0|0|0|0|0|0|0|0|0,25.395366666666668,main_trials,10
11642,,138515,25,all|most|some|none,all|most|some|none,right|wrong,5,,low,placeholder,Graduated High School,1580300928111,placeholder,81,male,English,5e1f0ebee8ec0723d7e622c7,Describe these results of <strong>Riverside</strong> so as to make it appear as if there is a <strong>low</strong> success rate without lying.,Results ran the spectrum with most students achieving mediocre marks.,9|9|3|0|0,In this exam,of the students got,of the questions,.,"%{""instances"" => [%{""n_col"" => 12, ""rows"" => [9, 9, 3, 0, 0]}], ""number"" => 6, ""sequence"" => [""BCCCD"", ""BCCDD"", ""BBCDD"", ""BBCCD""], ""truth_table"" => []}",6,Wed Jan 29 2020 12:03:24 GMT+0000 (GMT),1580299404389,1|1|1|1|1|1|1|1|1|0|0|0|1|1|1|1|1|1|1|1|1|0|0|0|1|1|1|0|0|0|0|0|0|0|0|0|0|0|0|0|0|0|0|0|0|0|0|0|0|0|0|0|0|0|0|0|0|0|0|0,25.395366666666668,main_trials,11
11633,,22977,25,all|most|some|none,all|most|some|none,right|wrong,5,,low,placeholder,Higher Degree,1580299939121,placeholder,81,female,English,5df7552e451be54ec34ff402,Describe these results of <strong>Riverside</strong> so as to make it appear as if there is a <strong>low</strong> success rate without lying.,Most students got all the questions wrong,3|3|0|0|0,In this exam,of the students got,of the questions,.,"%{""instances"" => [%{""n_col"" => 12, ""rows"" => [3, 3, 0, 0, 0]}], ""number"" => 2, ""sequence"" => [""CDDDD"", ""CCDDD""], ""truth_table"" => []}",2,Wed Jan 29 2020 12:05:03 GMT+0000 (Greenwich Mean Time),1580299503703,1|1|1|0|0|0|0|0|0|0|0|0|1|1|1|0|0|0|0|0|0|0|0|0|0|0|0|0|0|0|0|0|0|0|0|0|0|0|0|0|0|0|0|0|0|0|0|0|0|0|0|0|0|0|0|0|0|0|0|0,7.256966666666667,main_trials,1
11633,,25872,25,all|most|some|none,all|most|some|none,right|wrong,5,,low,placeholder,Higher Degree,1580299939121,placeholder,81,female,English,5df7552e451be54ec34ff402,Describe these results of <strong>Riverside</strong> so as to make it appear as if there is a <strong>low</strong> success rate without lying.,Some students didn't get all the questions right,12|12|12|9|9,In this exam,of the students got,of the questions,.,"%{""instances"" => [%{""n_col"" => 12, ""rows"" => '\f\f\f\t\t'}], ""number"" => 19, ""sequence"" => [""AAABB"", ""AAAAB""], ""truth_table"" => []}",19,Wed Jan 29 2020 12:05:03 GMT+0000 (Greenwich Mean Time),1580299503703,1|1|1|1|1|1|1|1|1|1|1|1|1|1|1|1|1|1|1|1|1|1|1|1|1|1|1|1|1|1|1|1|1|1|1|1|1|1|1|1|1|1|1|1|1|0|0|0|1|1|1|1|1|1|1|1|1|0|0|0,7.256966666666667,main_trials,2
11633,,47120,25,all|most|some|none,all|most|some|none,right|wrong,5,,high,placeholder,Higher Degree,1580299939121,placeholder,81,female,English,5df7552e451be54ec34ff402,Describe these results of <strong>Green Valley</strong> so as to make it appear as if there is a <strong>high</strong> success rate without lying.,Some students got all the questions right,12|12|3|0|0,In this exam,of the students got,of the questions,.,"%{""instances"" => [%{""n_col"" => 12, ""rows"" => [12, 12, 3, 0, 0]}], ""number"" => 1, ""sequence"" => [""ACCCD"", ""ACCDD"", ""AACDD"", ""AACCD"", ""ABCDD"", ""ABCCD""], ""truth_table"" => []}",1,Wed Jan 29 2020 12:05:03 GMT+0000 (Greenwich Mean Time),1580299503703,1|1|1|1|1|1|1|1|1|1|1|1|1|1|1|1|1|1|1|1|1|1|1|1|1|1|1|0|0|0|0|0|0|0|0|0|0|0|0|0|0|0|0|0|0|0|0|0|0|0|0|0|0|0|0|0|0|0|0|0,7.256966666666667,main_trials,3
11633,,34674,25,all|most|some|none,all|most|some|none,right|wrong,5,,high,placeholder,Higher Degree,1580299939121,placeholder,81,female,English,5df7552e451be54ec34ff402,Describe these results of <strong>Green Valley</strong> so as to make it appear as if there is a <strong>high</strong> success rate without lying.,All of the students got most of the questions right,9|9|9|9|9,In this exam,of the students got,of the questions,.,"%{""instances"" => [%{""n_col"" => 12, ""rows"" => '\t\t\t\t\t'}], ""number"" => 17, ""sequence"" => [""BBBBB""], ""truth_table"" => []}",17,Wed Jan 29 2020 12:05:03 GMT+0000 (Greenwich Mean Time),1580299503703,1|1|1|1|1|1|1|1|1|0|0|0|1|1|1|1|1|1|1|1|1|0|0|0|1|1|1|1|1|1|1|1|1|0|0|0|1|1|1|1|1|1|1|1|1|0|0|0|1|1|1|1|1|1|1|1|1|0|0|0,7.256966666666667,main_trials,4
11633,,30537,25,all|most|some|none,all|most|some|none,right|wrong,5,,low,placeholder,Higher Degree,1580299939121,placeholder,81,female,English,5df7552e451be54ec34ff402,Describe these results of <strong>Riverside</strong> so as to make it appear as if there is a <strong>low</strong> success rate without lying.,Most of the questions were answered incorrectly by all students,3|3|3|0|0,In this exam,of the students got,of the questions,.,"%{""instances"" => [%{""n_col"" => 12, ""rows"" => [3, 3, 3, 0, 0]}], ""number"" => 5, ""sequence"" => [""CCCDD"", ""CCCCD""], ""truth_table"" => []}",5,Wed Jan 29 2020 12:05:03 GMT+0000 (Greenwich Mean Time),1580299503703,1|1|1|0|0|0|0|0|0|0|0|0|1|1|1|0|0|0|0|0|0|0|0|0|1|1|1|0|0|0|0|0|0|0|0|0|0|0|0|0|0|0|0|0|0|0|0|0|0|0|0|0|0|0|0|0|0|0|0|0,7.256966666666667,main_trials,5
11633,,27172,25,all|most|some|none,all|most|some|none,right|wrong,5,,high,placeholder,Higher Degree,1580299939121,placeholder,81,female,English,5df7552e451be54ec34ff402,Describe these results of <strong>Green Valley</strong> so as to make it appear as if there is a <strong>high</strong> success rate without lying.,A number of students got most of the questions right,9|9|3|0|0,In this exam,of the students got,of the questions,.,"%{""instances"" => [%{""n_col"" => 12, ""rows"" => [9, 9, 3, 0, 0]}], ""number"" => 6, ""sequence"" => [""BCCCD"", ""BCCDD"", ""BBCDD"", ""BBCCD""], ""truth_table"" => []}",6,Wed Jan 29 2020 12:05:03 GMT+0000 (Greenwich Mean Time),1580299503703,1|1|1|1|1|1|1|1|1|0|0|0|1|1|1|1|1|1|1|1|1|0|0|0|1|1|1|0|0|0|0|0|0|0|0|0|0|0|0|0|0|0|0|0|0|0|0|0|0|0|0|0|0|0|0|0|0|0|0|0,7.256966666666667,main_trials,6
11633,,50087,25,all|most|some|none,all|most|some|none,right|wrong,5,,low,placeholder,Higher Degree,1580299939121,placeholder,81,female,English,5df7552e451be54ec34ff402,Describe these results of <strong>Riverside</strong> so as to make it appear as if there is a <strong>low</strong> success rate without lying.,The students answered the questions correctly,12|12|12|12|12,In this exam,of the students got,of the questions,.,"%{""instances"" => [%{""n_col"" => 12, ""rows"" => '\f\f\f\f\f'}], ""number"" => 20, ""sequence"" => [""AAAAA""], ""truth_table"" => []}",20,Wed Jan 29 2020 12:05:03 GMT+0000 (Greenwich Mean Time),1580299503703,1|1|1|1|1|1|1|1|1|1|1|1|1|1|1|1|1|1|1|1|1|1|1|1|1|1|1|1|1|1|1|1|1|1|1|1|1|1|1|1|1|1|1|1|1|1|1|1|1|1|1|1|1|1|1|1|1|1|1|1,7.256966666666667,main_trials,7
11633,,27761,25,all|most|some|none,all|most|some|none,right|wrong,5,,low,placeholder,Higher Degree,1580299939121,placeholder,81,female,English,5df7552e451be54ec34ff402,Describe these results of <strong>Riverside</strong> so as to make it appear as if there is a <strong>low</strong> success rate without lying.,Not all the questions were answered correctly by all students,9|9|9|0|0,In this exam,of the students got,of the questions,.,"%{""instances"" => [%{""n_col"" => 12, ""rows"" => [9, 9, 9, 0, 0]}], ""number"" => 7, ""sequence"" => [""BBBDD"", ""BBBBD"", ""BBBCD""], ""truth_table"" => []}",7,Wed Jan 29 2020 12:05:03 GMT+0000 (Greenwich Mean Time),1580299503703,1|1|1|1|1|1|1|1|1|0|0|0|1|1|1|1|1|1|1|1|1|0|0|0|1|1|1|1|1|1|1|1|1|0|0|0|0|0|0|0|0|0|0|0|0|0|0|0|0|0|0|0|0|0|0|0|0|0|0|0,7.256966666666667,main_trials,8
11633,,27313,25,all|most|some|none,all|most|some|none,right|wrong,5,,low,placeholder,Higher Degree,1580299939121,placeholder,81,female,English,5df7552e451be54ec34ff402,Describe these results of <strong>Riverside</strong> so as to make it appear as if there is a <strong>low</strong> success rate without lying.,Most of the students didn't get all the questions right,12|12|9|0|0,In this exam,of the students got,of the questions,.,"%{""instances"" => [%{""n_col"" => 12, ""rows"" => [12, 12, 9, 0, 0]}], ""number"" => 8, ""sequence"" => [""ABBBD"", ""ABBDD"", ""AABDD"", ""ABBBD"", ""ABBCD"", ""AABCD""], ""truth_table"" => []}",8,Wed Jan 29 2020 12:05:03 GMT+0000 (Greenwich Mean Time),1580299503703,1|1|1|1|1|1|1|1|1|1|1|1|1|1|1|1|1|1|1|1|1|1|1|1|1|1|1|1|1|1|1|1|1|0|0|0|0|0|0|0|0|0|0|0|0|0|0|0|0|0|0|0|0|0|0|0|0|0|0|0,7.256966666666667,main_trials,9
11633,,28703,25,all|most|some|none,all|most|some|none,right|wrong,5,,low,placeholder,Higher Degree,1580299939121,placeholder,81,female,English,5df7552e451be54ec34ff402,Describe these results of <strong>Riverside</strong> so as to make it appear as if there is a <strong>low</strong> success rate without lying.,Most of the students only got three questions right,12|12|3|3|3,In this exam,of the students got,of the questions,.,"%{""instances"" => [%{""n_col"" => 12, ""rows"" => [12, 12, 3, 3, 3]}], ""number"" => 13, ""sequence"" => [""ACCCC"", ""AACCC"", ""ABCCC""], ""truth_table"" => []}",13,Wed Jan 29 2020 12:05:03 GMT+0000 (Greenwich Mean Time),1580299503703,1|1|1|1|1|1|1|1|1|1|1|1|1|1|1|1|1|1|1|1|1|1|1|1|1|1|1|0|0|0|0|0|0|0|0|0|1|1|1|0|0|0|0|0|0|0|0|0|1|1|1|0|0|0|0|0|0|0|0|0,7.256966666666667,main_trials,10
11633,,13587,25,all|most|some|none,all|most|some|none,right|wrong,5,,high,placeholder,Higher Degree,1580299939121,placeholder,81,female,English,5df7552e451be54ec34ff402,Describe these results of <strong>Green Valley</strong> so as to make it appear as if there is a <strong>high</strong> success rate without lying.,Most of the students got full marks,12|12|12|3|3,In this exam,of the students got,of the questions,.,"%{""instances"" => [%{""n_col"" => 12, ""rows"" => [12, 12, 12, 3, 3]}], ""number"" => 16, ""sequence"" => [""AAACC"", ""AAAAC"", ""AAABC""], ""truth_table"" => []}",16,Wed Jan 29 2020 12:05:03 GMT+0000 (Greenwich Mean Time),1580299503703,1|1|1|1|1|1|1|1|1|1|1|1|1|1|1|1|1|1|1|1|1|1|1|1|1|1|1|1|1|1|1|1|1|1|1|1|1|1|1|0|0|0|0|0|0|0|0|0|1|1|1|0|0|0|0|0|0|0|0|0,7.256966666666667,main_trials,11
11643,,85157,54,all|most|some|none,all|most|some|none,right|wrong,5,,high,placeholder,Graduated High School,1580300978523,placeholder,81,female,English,5e162e31398bb6c0ab5c2428,Describe these results of <strong>Green Valley</strong> so as to make it appear as if there is a <strong>high</strong> success rate without lying.,All students achieved 74% or above,9|9|9|9|9,In this exam,of the students got,of the questions,.,"%{""instances"" => [%{""n_col"" => 12, ""rows"" => '\t\t\t\t\t'}], ""number"" => 17, ""sequence"" => [""BBBBB""], ""truth_table"" => []}",17,Wed Jan 29 2020 12:12:27 GMT+0000 (GMT),1580299947153,1|1|1|1|1|1|1|1|1|0|0|0|1|1|1|1|1|1|1|1|1|0|0|0|1|1|1|1|1|1|1|1|1|0|0|0|1|1|1|1|1|1|1|1|1|0|0|0|1|1|1|1|1|1|1|1|1|0|0|0,17.1895,main_trials,1
11643,,33874,54,all|most|some|none,all|most|some|none,right|wrong,5,,high,placeholder,Graduated High School,1580300978523,placeholder,81,female,English,5e162e31398bb6c0ab5c2428,Describe these results of <strong>Green Valley</strong> so as to make it appear as if there is a <strong>high</strong> success rate without lying.,ALL students achieved 100%,12|12|12|12|12,In this exam,of the students got,of the questions,.,"%{""instances"" => [%{""n_col"" => 12, ""rows"" => '\f\f\f\f\f'}], ""number"" => 20, ""sequence"" => [""AAAAA""], ""truth_table"" => []}",20,Wed Jan 29 2020 12:12:27 GMT+0000 (GMT),1580299947153,1|1|1|1|1|1|1|1|1|1|1|1|1|1|1|1|1|1|1|1|1|1|1|1|1|1|1|1|1|1|1|1|1|1|1|1|1|1|1|1|1|1|1|1|1|1|1|1|1|1|1|1|1|1|1|1|1|1|1|1,17.1895,main_trials,2
11643,,36527,54,all|most|some|none,all|most|some|none,right|wrong,5,,high,placeholder,Graduated High School,1580300978523,placeholder,81,female,English,5e162e31398bb6c0ab5c2428,Describe these results of <strong>Green Valley</strong> so as to make it appear as if there is a <strong>high</strong> success rate without lying.,All students studied the course content,0|0|0|0|0,In this exam,of the students got,of the questions,.,"%{""instances"" => [%{""n_col"" => 12, ""rows"" => [0, 0, 0, 0, 0]}], ""number"" => 10, ""sequence"" => [""DDDDD""], ""truth_table"" => []}",10,Wed Jan 29 2020 12:12:27 GMT+0000 (GMT),1580299947153,0|0|0|0|0|0|0|0|0|0|0|0|0|0|0|0|0|0|0|0|0|0|0|0|0|0|0|0|0|0|0|0|0|0|0|0|0|0|0|0|0|0|0|0|0|0|0|0|0|0|0|0|0|0|0|0|0|0|0|0,17.1895,main_trials,3
11643,,55991,54,all|most|some|none,all|most|some|none,right|wrong,5,,low,placeholder,Graduated High School,1580300978523,placeholder,81,female,English,5e162e31398bb6c0ab5c2428,Describe these results of <strong>Riverside</strong> so as to make it appear as if there is a <strong>low</strong> success rate without lying.,40% achieved absolutely NO marks,12|12|12|0|0,In this exam,of the students got,of the questions,.,"%{""instances"" => [%{""n_col"" => 12, ""rows"" => [12, 12, 12, 0, 0]}], ""number"" => 9, ""sequence"" => [""AAADD"", ""AAAAD"", ""AAABD"", ""AAACD""], ""truth_table"" => []}",9,Wed Jan 29 2020 12:12:27 GMT+0000 (GMT),1580299947153,1|1|1|1|1|1|1|1|1|1|1|1|1|1|1|1|1|1|1|1|1|1|1|1|1|1|1|1|1|1|1|1|1|1|1|1|0|0|0|0|0|0|0|0|0|0|0|0|0|0|0|0|0|0|0|0|0|0|0|0,17.1895,main_trials,4
11643,,49333,54,all|most|some|none,all|most|some|none,right|wrong,5,,low,placeholder,Graduated High School,1580300978523,placeholder,81,female,English,5e162e31398bb6c0ab5c2428,Describe these results of <strong>Riverside</strong> so as to make it appear as if there is a <strong>low</strong> success rate without lying.,60% of pupils achieved NO marks,12|12|0|0|0,In this exam,of the students got,of the questions,.,"%{""instances"" => [%{""n_col"" => 12, ""rows"" => [12, 12, 0, 0, 0]}], ""number"" => 4, ""sequence"" => [""ADDDD"", ""AADDD"", ""ABDDD"", ""ACDDD""], ""truth_table"" => []}",4,Wed Jan 29 2020 12:12:27 GMT+0000 (GMT),1580299947153,1|1|1|1|1|1|1|1|1|1|1|1|1|1|1|1|1|1|1|1|1|1|1|1|0|0|0|0|0|0|0|0|0|0|0|0|0|0|0|0|0|0|0|0|0|0|0|0|0|0|0|0|0|0|0|0|0|0|0|0,17.1895,main_trials,5
11643,,87704,54,all|most|some|none,all|most|some|none,right|wrong,5,,low,placeholder,Graduated High School,1580300978523,placeholder,81,female,English,5e162e31398bb6c0ab5c2428,Describe these results of <strong>Riverside</strong> so as to make it appear as if there is a <strong>low</strong> success rate without lying.,ALL Only achieved below 26%,3|3|3|3|3,In this exam,of the students got,of the questions,.,"%{""instances"" => [%{""n_col"" => 12, ""rows"" => [3, 3, 3, 3, 3]}], ""number"" => 11, ""sequence"" => [""CCCCC""], ""truth_table"" => []}",11,Wed Jan 29 2020 12:12:27 GMT+0000 (GMT),1580299947153,1|1|1|0|0|0|0|0|0|0|0|0|1|1|1|0|0|0|0|0|0|0|0|0|1|1|1|0|0|0|0|0|0|0|0|0|1|1|1|0|0|0|0|0|0|0|0|0|1|1|1|0|0|0|0|0|0|0|0|0,17.1895,main_trials,6
11643,,57161,54,all|most|some|none,all|most|some|none,right|wrong,5,,high,placeholder,Graduated High School,1580300978523,placeholder,81,female,English,5e162e31398bb6c0ab5c2428,Describe these results of <strong>Green Valley</strong> so as to make it appear as if there is a <strong>high</strong> success rate without lying.,Most pupils achieved 74% and above,9|9|9|0|0,In this exam,of the students got,of the questions,.,"%{""instances"" => [%{""n_col"" => 12, ""rows"" => [9, 9, 9, 0, 0]}], ""number"" => 7, ""sequence"" => [""BBBDD"", ""BBBBD"", ""BBBCD""], ""truth_table"" => []}",7,Wed Jan 29 2020 12:12:27 GMT+0000 (GMT),1580299947153,1|1|1|1|1|1|1|1|1|0|0|0|1|1|1|1|1|1|1|1|1|0|0|0|1|1|1|1|1|1|1|1|1|0|0|0|0|0|0|0|0|0|0|0|0|0|0|0|0|0|0|0|0|0|0|0|0|0|0|0,17.1895,main_trials,7
11643,,118810,54,all|most|some|none,all|most|some|none,right|wrong,5,,high,placeholder,Graduated High School,1580300978523,placeholder,81,female,English,5e162e31398bb6c0ab5c2428,Describe these results of <strong>Green Valley</strong> so as to make it appear as if there is a <strong>high</strong> success rate without lying.,40% of students achieved higher grades than the average,3|3|0|0|0,In this exam,of the students got,of the questions,.,"%{""instances"" => [%{""n_col"" => 12, ""rows"" => [3, 3, 0, 0, 0]}], ""number"" => 2, ""sequence"" => [""CDDDD"", ""CCDDD""], ""truth_table"" => []}",2,Wed Jan 29 2020 12:12:27 GMT+0000 (GMT),1580299947153,1|1|1|0|0|0|0|0|0|0|0|0|1|1|1|0|0|0|0|0|0|0|0|0|0|0|0|0|0|0|0|0|0|0|0|0|0|0|0|0|0|0|0|0|0|0|0|0|0|0|0|0|0|0|0|0|0|0|0|0,17.1895,main_trials,8
11643,,92792,54,all|most|some|none,all|most|some|none,right|wrong,5,,high,placeholder,Graduated High School,1580300978523,placeholder,81,female,English,5e162e31398bb6c0ab5c2428,Describe these results of <strong>Green Valley</strong> so as to make it appear as if there is a <strong>high</strong> success rate without lying.,"40% of students achieving 100%, with 20% achieving over 74%",12|12|9|0|0,In this exam,of the students got,of the questions,.,"%{""instances"" => [%{""n_col"" => 12, ""rows"" => [12, 12, 9, 0, 0]}], ""number"" => 8, ""sequence"" => [""ABBBD"", ""ABBDD"", ""AABDD"", ""ABBBD"", ""ABBCD"", ""AABCD""], ""truth_table"" => []}",8,Wed Jan 29 2020 12:12:27 GMT+0000 (GMT),1580299947153,1|1|1|1|1|1|1|1|1|1|1|1|1|1|1|1|1|1|1|1|1|1|1|1|1|1|1|1|1|1|1|1|1|0|0|0|0|0|0|0|0|0|0|0|0|0|0|0|0|0|0|0|0|0|0|0|0|0|0|0,17.1895,main_trials,9
11643,,59531,54,all|most|some|none,all|most|some|none,right|wrong,5,,low,placeholder,Graduated High School,1580300978523,placeholder,81,female,English,5e162e31398bb6c0ab5c2428,Describe these results of <strong>Riverside</strong> so as to make it appear as if there is a <strong>low</strong> success rate without lying.,40% of students only achieving 25%,12|12|12|3|3,In this exam,of the students got,of the questions,.,"%{""instances"" => [%{""n_col"" => 12, ""rows"" => [12, 12, 12, 3, 3]}], ""number"" => 16, ""sequence"" => [""AAACC"", ""AAAAC"", ""AAABC""], ""truth_table"" => []}",16,Wed Jan 29 2020 12:12:27 GMT+0000 (GMT),1580299947153,1|1|1|1|1|1|1|1|1|1|1|1|1|1|1|1|1|1|1|1|1|1|1|1|1|1|1|1|1|1|1|1|1|1|1|1|1|1|1|0|0|0|0|0|0|0|0|0|1|1|1|0|0|0|0|0|0|0|0|0,17.1895,main_trials,10
11643,,118810,54,all|most|some|none,all|most|some|none,right|wrong,5,,high,placeholder,Graduated High School,1580300978523,placeholder,81,female,English,5e162e31398bb6c0ab5c2428,Describe these results of <strong>Green Valley</strong> so as to make it appear as if there is a <strong>high</strong> success rate without lying.,"40% of students achieving excellent full marks, 100%\nWith 60% achieving 24% and above",12|12|3|3|3,In this exam,of the students got,of the questions,.,"%{""instances"" => [%{""n_col"" => 12, ""rows"" => [12, 12, 3, 3, 3]}], ""number"" => 13, ""sequence"" => [""ACCCC"", ""AACCC"", ""ABCCC""], ""truth_table"" => []}",13,Wed Jan 29 2020 12:12:27 GMT+0000 (GMT),1580299947153,1|1|1|1|1|1|1|1|1|1|1|1|1|1|1|1|1|1|1|1|1|1|1|1|1|1|1|0|0|0|0|0|0|0|0|0|1|1|1|0|0|0|0|0|0|0|0|0|1|1|1|0|0|0|0|0|0|0|0|0,17.1895,main_trials,11
11621,,20972,22,all|most|some|none,all|most|some|none,right|wrong,5,,low,placeholder,Higher Degree,1580227635561,placeholder,81,female,English,5d209c97634f7e0001a0dd8e,Describe these results of <strong>Riverside</strong> so as to make it appear as if there is a <strong>low</strong> success rate without lying.,no students answered all of the questions correctly,9|9|9|3|3,In this exam,of the students got,of the questions,.,"%{""instances"" => [%{""n_col"" => 12, ""rows"" => [9, 9, 9, 3, 3]}], ""number"" => 14, ""sequence"" => [""BBBCC"", ""BBBBC""], ""truth_table"" => []}",14,Tue Jan 28 2020 16:01:56 GMT+0000 (Greenwich Mean Time),1580227316594,1|1|1|1|1|1|1|1|1|0|0|0|1|1|1|1|1|1|1|1|1|0|0|0|1|1|1|1|1|1|1|1|1|0|0|0|1|1|1|0|0|0|0|0|0|0|0|0|1|1|1|0|0|0|0|0|0|0|0|0,5.316116666666667,main_trials,1
11621,,89916,22,all|most|some|none,all|most|some|none,right|wrong,5,,high,placeholder,Higher Degree,1580227635561,placeholder,81,female,English,5d209c97634f7e0001a0dd8e,Describe these results of <strong>Green Valley</strong> so as to make it appear as if there is a <strong>high</strong> success rate without lying.,students achieved well in the earlier questions,3|3|0|0|0,In this exam,of the students got,of the questions,.,"%{""instances"" => [%{""n_col"" => 12, ""rows"" => [3, 3, 0, 0, 0]}], ""number"" => 2, ""sequence"" => [""CDDDD"", ""CCDDD""], ""truth_table"" => []}",2,Tue Jan 28 2020 16:01:56 GMT+0000 (Greenwich Mean Time),1580227316594,1|1|1|0|0|0|0|0|0|0|0|0|1|1|1|0|0|0|0|0|0|0|0|0|0|0|0|0|0|0|0|0|0|0|0|0|0|0|0|0|0|0|0|0|0|0|0|0|0|0|0|0|0|0|0|0|0|0|0|0,5.316116666666667,main_trials,2
11621,,23590,22,all|most|some|none,all|most|some|none,right|wrong,5,,high,placeholder,Higher Degree,1580227635561,placeholder,81,female,English,5d209c97634f7e0001a0dd8e,Describe these results of <strong>Green Valley</strong> so as to make it appear as if there is a <strong>high</strong> success rate without lying.,all students answered the majority of questions correctly,12|12|9|9|9,In this exam,of the students got,of the questions,.,"%{""instances"" => [%{""n_col"" => 12, ""rows"" => '\f\f\t\t\t'}], ""number"" => 18, ""sequence"" => [""ABBBB"", ""AABBB""], ""truth_table"" => []}",18,Tue Jan 28 2020 16:01:56 GMT+0000 (Greenwich Mean Time),1580227316594,1|1|1|1|1|1|1|1|1|1|1|1|1|1|1|1|1|1|1|1|1|1|1|1|1|1|1|1|1|1|1|1|1|0|0|0|1|1|1|1|1|1|1|1|1|0|0|0|1|1|1|1|1|1|1|1|1|0|0|0,5.316116666666667,main_trials,3
11621,,13220,22,all|most|some|none,all|most|some|none,right|wrong,5,,high,placeholder,Higher Degree,1580227635561,placeholder,81,female,English,5d209c97634f7e0001a0dd8e,Describe these results of <strong>Green Valley</strong> so as to make it appear as if there is a <strong>high</strong> success rate without lying.,the majority of students answered all of the questions correctly,12|12|12|0|0,In this exam,of the students got,of the questions,.,"%{""instances"" => [%{""n_col"" => 12, ""rows"" => [12, 12, 12, 0, 0]}], ""number"" => 9, ""sequence"" => [""AAADD"", ""AAAAD"", ""AAABD"", ""AAACD""], ""truth_table"" => []}",9,Tue Jan 28 2020 16:01:56 GMT+0000 (Greenwich Mean Time),1580227316594,1|1|1|1|1|1|1|1|1|1|1|1|1|1|1|1|1|1|1|1|1|1|1|1|1|1|1|1|1|1|1|1|1|1|1|1|0|0|0|0|0|0|0|0|0|0|0|0|0|0|0|0|0|0|0|0|0|0|0|0,5.316116666666667,main_trials,4
11621,,22220,22,all|most|some|none,all|most|some|none,right|wrong,5,,low,placeholder,Higher Degree,1580227635561,placeholder,81,female,English,5d209c97634f7e0001a0dd8e,Describe these results of <strong>Riverside</strong> so as to make it appear as if there is a <strong>low</strong> success rate without lying.,not all students answered all of the questions correctly,12|12|12|9|9,In this exam,of the students got,of the questions,.,"%{""instances"" => [%{""n_col"" => 12, ""rows"" => '\f\f\f\t\t'}], ""number"" => 19, ""sequence"" => [""AAABB"", ""AAAAB""], ""truth_table"" => []}",19,Tue Jan 28 2020 16:01:56 GMT+0000 (Greenwich Mean Time),1580227316594,1|1|1|1|1|1|1|1|1|1|1|1|1|1|1|1|1|1|1|1|1|1|1|1|1|1|1|1|1|1|1|1|1|1|1|1|1|1|1|1|1|1|1|1|1|0|0|0|1|1|1|1|1|1|1|1|1|0|0|0,5.316116666666667,main_trials,5
11621,,10499,22,all|most|some|none,all|most|some|none,right|wrong,5,,high,placeholder,Higher Degree,1580227635561,placeholder,81,female,English,5d209c97634f7e0001a0dd8e,Describe these results of <strong>Green Valley</strong> so as to make it appear as if there is a <strong>high</strong> success rate without lying.,all students answered all of the questions correctly,12|12|12|12|12,In this exam,of the students got,of the questions,.,"%{""instances"" => [%{""n_col"" => 12, ""rows"" => '\f\f\f\f\f'}], ""number"" => 20, ""sequence"" => [""AAAAA""], ""truth_table"" => []}",20,Tue Jan 28 2020 16:01:56 GMT+0000 (Greenwich Mean Time),1580227316594,1|1|1|1|1|1|1|1|1|1|1|1|1|1|1|1|1|1|1|1|1|1|1|1|1|1|1|1|1|1|1|1|1|1|1|1|1|1|1|1|1|1|1|1|1|1|1|1|1|1|1|1|1|1|1|1|1|1|1|1,5.316116666666667,main_trials,6
11621,,31135,22,all|most|some|none,all|most|some|none,right|wrong,5,,low,placeholder,Higher Degree,1580227635561,placeholder,81,female,English,5d209c97634f7e0001a0dd8e,Describe these results of <strong>Riverside</strong> so as to make it appear as if there is a <strong>low</strong> success rate without lying.,some students could not answer the majority of questions correctly,12|12|12|3|3,In this exam,of the students got,of the questions,.,"%{""instances"" => [%{""n_col"" => 12, ""rows"" => [12, 12, 12, 3, 3]}], ""number"" => 16, ""sequence"" => [""AAACC"", ""AAAAC"", ""AAABC""], ""truth_table"" => []}",16,Tue Jan 28 2020 16:01:56 GMT+0000 (Greenwich Mean Time),1580227316594,1|1|1|1|1|1|1|1|1|1|1|1|1|1|1|1|1|1|1|1|1|1|1|1|1|1|1|1|1|1|1|1|1|1|1|1|1|1|1|0|0|0|0|0|0|0|0|0|1|1|1|0|0|0|0|0|0|0|0|0,5.316116666666667,main_trials,7
11621,,18461,22,all|most|some|none,all|most|some|none,right|wrong,5,,high,placeholder,Higher Degree,1580227635561,placeholder,81,female,English,5d209c97634f7e0001a0dd8e,Describe these results of <strong>Green Valley</strong> so as to make it appear as if there is a <strong>high</strong> success rate without lying.,some students answered the majority of questions correctly,9|9|0|0|0,In this exam,of the students got,of the questions,.,"%{""instances"" => [%{""n_col"" => 12, ""rows"" => [9, 9, 0, 0, 0]}], ""number"" => 3, ""sequence"" => [""BDDDD"", ""BBDDD"", ""BCDDD""], ""truth_table"" => []}",3,Tue Jan 28 2020 16:01:56 GMT+0000 (Greenwich Mean Time),1580227316594,1|1|1|1|1|1|1|1|1|0|0|0|1|1|1|1|1|1|1|1|1|0|0|0|0|0|0|0|0|0|0|0|0|0|0|0|0|0|0|0|0|0|0|0|0|0|0|0|0|0|0|0|0|0|0|0|0|0|0|0,5.316116666666667,main_trials,8
11621,,14987,22,all|most|some|none,all|most|some|none,right|wrong,5,,low,placeholder,Higher Degree,1580227635561,placeholder,81,female,English,5d209c97634f7e0001a0dd8e,Describe these results of <strong>Riverside</strong> so as to make it appear as if there is a <strong>low</strong> success rate without lying.,no students answered the majority of questions correctly,3|3|3|3|3,In this exam,of the students got,of the questions,.,"%{""instances"" => [%{""n_col"" => 12, ""rows"" => [3, 3, 3, 3, 3]}], ""number"" => 11, ""sequence"" => [""CCCCC""], ""truth_table"" => []}",11,Tue Jan 28 2020 16:01:56 GMT+0000 (Greenwich Mean Time),1580227316594,1|1|1|0|0|0|0|0|0|0|0|0|1|1|1|0|0|0|0|0|0|0|0|0|1|1|1|0|0|0|0|0|0|0|0|0|1|1|1|0|0|0|0|0|0|0|0|0|1|1|1|0|0|0|0|0|0|0|0|0,5.316116666666667,main_trials,9
11621,,6466,22,all|most|some|none,all|most|some|none,right|wrong,5,,low,placeholder,Higher Degree,1580227635561,placeholder,81,female,English,5d209c97634f7e0001a0dd8e,Describe these results of <strong>Riverside</strong> so as to make it appear as if there is a <strong>low</strong> success rate without lying.,all students failed,0|0|0|0|0,In this exam,of the students got,of the questions,.,"%{""instances"" => [%{""n_col"" => 12, ""rows"" => [0, 0, 0, 0, 0]}], ""number"" => 10, ""sequence"" => [""DDDDD""], ""truth_table"" => []}",10,Tue Jan 28 2020 16:01:56 GMT+0000 (Greenwich Mean Time),1580227316594,0|0|0|0|0|0|0|0|0|0|0|0|0|0|0|0|0|0|0|0|0|0|0|0|0|0|0|0|0|0|0|0|0|0|0|0|0|0|0|0|0|0|0|0|0|0|0|0|0|0|0|0|0|0|0|0|0|0|0|0,5.316116666666667,main_trials,10
11621,,20076,22,all|most|some|none,all|most|some|none,right|wrong,5,,low,placeholder,Higher Degree,1580227635561,placeholder,81,female,English,5d209c97634f7e0001a0dd8e,Describe these results of <strong>Riverside</strong> so as to make it appear as if there is a <strong>low</strong> success rate without lying.,some students answered no questions correctly,12|12|9|0|0,In this exam,of the students got,of the questions,.,"%{""instances"" => [%{""n_col"" => 12, ""rows"" => [12, 12, 9, 0, 0]}], ""number"" => 8, ""sequence"" => [""ABBBD"", ""ABBDD"", ""AABDD"", ""ABBBD"", ""ABBCD"", ""AABCD""], ""truth_table"" => []}",8,Tue Jan 28 2020 16:01:56 GMT+0000 (Greenwich Mean Time),1580227316594,1|1|1|1|1|1|1|1|1|1|1|1|1|1|1|1|1|1|1|1|1|1|1|1|1|1|1|1|1|1|1|1|1|0|0|0|0|0|0|0|0|0|0|0|0|0|0|0|0|0|0|0|0|0|0|0|0|0|0|0,5.316116666666667,main_trials,11
11637,,59340,31,all|most|some|none,all|most|some|none,right|wrong,5,,high,placeholder,Graduated High School,1580300268432,placeholder,81,male,english spanish,5c378798bef9a20001e3a01a,Describe these results of <strong>Green Valley</strong> so as to make it appear as if there is a <strong>high</strong> success rate without lying.,Most students in Green Valley got a perfect or near perfect score on their math test.,12|12|9|3|3,In this exam,of the students got,of the questions,.,"%{""instances"" => [%{""n_col"" => 12, ""rows"" => [12, 12, 9, 3, 3]}], ""number"" => 15, ""sequence"" => [""ABBBC"", ""ABBCC"", ""AABCC"", ""AABBC""], ""truth_table"" => []}",15,Wed Jan 29 2020 06:04:03 GMT-0600 (Central Standard Time),1580299443031,1|1|1|1|1|1|1|1|1|1|1|1|1|1|1|1|1|1|1|1|1|1|1|1|1|1|1|1|1|1|1|1|1|0|0|0|1|1|1|0|0|0|0|0|0|0|0|0|1|1|1|0|0|0|0|0|0|0|0|0,13.756683333333333,main_trials,1
11637,,45009,31,all|most|some|none,all|most|some|none,right|wrong,5,,high,placeholder,Graduated High School,1580300268432,placeholder,81,male,english spanish,5c378798bef9a20001e3a01a,Describe these results of <strong>Green Valley</strong> so as to make it appear as if there is a <strong>high</strong> success rate without lying.,Almost all the students in green valley got a perfect or near perfect school.,12|12|9|0|0,In this exam,of the students got,of the questions,.,"%{""instances"" => [%{""n_col"" => 12, ""rows"" => [12, 12, 9, 0, 0]}], ""number"" => 8, ""sequence"" => [""ABBBD"", ""ABBDD"", ""AABDD"", ""ABBBD"", ""ABBCD"", ""AABCD""], ""truth_table"" => []}",8,Wed Jan 29 2020 06:04:03 GMT-0600 (Central Standard Time),1580299443031,1|1|1|1|1|1|1|1|1|1|1|1|1|1|1|1|1|1|1|1|1|1|1|1|1|1|1|1|1|1|1|1|1|0|0|0|0|0|0|0|0|0|0|0|0|0|0|0|0|0|0|0|0|0|0|0|0|0|0|0,13.756683333333333,main_trials,2
11637,,58538,31,all|most|some|none,all|most|some|none,right|wrong,5,,low,placeholder,Graduated High School,1580300268432,placeholder,81,male,english spanish,5c378798bef9a20001e3a01a,Describe these results of <strong>Riverside</strong> so as to make it appear as if there is a <strong>low</strong> success rate without lying.,Over a quarter of Riverside students did not answer a single question right on their test.,12|12|12|0|0,In this exam,of the students got,of the questions,.,"%{""instances"" => [%{""n_col"" => 12, ""rows"" => [12, 12, 12, 0, 0]}], ""number"" => 9, ""sequence"" => [""AAADD"", ""AAAAD"", ""AAABD"", ""AAACD""], ""truth_table"" => []}",9,Wed Jan 29 2020 06:04:03 GMT-0600 (Central Standard Time),1580299443031,1|1|1|1|1|1|1|1|1|1|1|1|1|1|1|1|1|1|1|1|1|1|1|1|1|1|1|1|1|1|1|1|1|1|1|1|0|0|0|0|0|0|0|0|0|0|0|0|0|0|0|0|0|0|0|0|0|0|0|0,13.756683333333333,main_trials,3
11637,,40892,31,all|most|some|none,all|most|some|none,right|wrong,5,,high,placeholder,Graduated High School,1580300268432,placeholder,81,male,english spanish,5c378798bef9a20001e3a01a,Describe these results of <strong>Green Valley</strong> so as to make it appear as if there is a <strong>high</strong> success rate without lying.,No one in green valley got a perfect score and a quarter didn't answer any questions correctly on their math test.,9|9|9|0|0,In this exam,of the students got,of the questions,.,"%{""instances"" => [%{""n_col"" => 12, ""rows"" => [9, 9, 9, 0, 0]}], ""number"" => 7, ""sequence"" => [""BBBDD"", ""BBBBD"", ""BBBCD""], ""truth_table"" => []}",7,Wed Jan 29 2020 06:04:03 GMT-0600 (Central Standard Time),1580299443031,1|1|1|1|1|1|1|1|1|0|0|0|1|1|1|1|1|1|1|1|1|0|0|0|1|1|1|1|1|1|1|1|1|0|0|0|0|0|0|0|0|0|0|0|0|0|0|0|0|0|0|0|0|0|0|0|0|0|0|0,13.756683333333333,main_trials,4
11637,,49406,31,all|most|some|none,all|most|some|none,right|wrong,5,,high,placeholder,Graduated High School,1580300268432,placeholder,81,male,english spanish,5c378798bef9a20001e3a01a,Describe these results of <strong>Green Valley</strong> so as to make it appear as if there is a <strong>high</strong> success rate without lying.,100% of the students in Green valley scored very well on their math test.,12|12|9|9|9,In this exam,of the students got,of the questions,.,"%{""instances"" => [%{""n_col"" => 12, ""rows"" => '\f\f\t\t\t'}], ""number"" => 18, ""sequence"" => [""ABBBB"", ""AABBB""], ""truth_table"" => []}",18,Wed Jan 29 2020 06:04:03 GMT-0600 (Central Standard Time),1580299443031,1|1|1|1|1|1|1|1|1|1|1|1|1|1|1|1|1|1|1|1|1|1|1|1|1|1|1|1|1|1|1|1|1|0|0|0|1|1|1|1|1|1|1|1|1|0|0|0|1|1|1|1|1|1|1|1|1|0|0|0,13.756683333333333,main_trials,5
11637,,45538,31,all|most|some|none,all|most|some|none,right|wrong,5,,high,placeholder,Graduated High School,1580300268432,placeholder,81,male,english spanish,5c378798bef9a20001e3a01a,Describe these results of <strong>Green Valley</strong> so as to make it appear as if there is a <strong>high</strong> success rate without lying.,Over a quarter of Green Valley students scored a perfect score on their math test.,12|12|3|0|0,In this exam,of the students got,of the questions,.,"%{""instances"" => [%{""n_col"" => 12, ""rows"" => [12, 12, 3, 0, 0]}], ""number"" => 1, ""sequence"" => [""ACCCD"", ""ACCDD"", ""AACDD"", ""AACCD"", ""ABCDD"", ""ABCCD""], ""truth_table"" => []}",1,Wed Jan 29 2020 06:04:03 GMT-0600 (Central Standard Time),1580299443031,1|1|1|1|1|1|1|1|1|1|1|1|1|1|1|1|1|1|1|1|1|1|1|1|1|1|1|0|0|0|0|0|0|0|0|0|0|0|0|0|0|0|0|0|0|0|0|0|0|0|0|0|0|0|0|0|0|0|0|0,13.756683333333333,main_trials,6
11637,,28401,31,all|most|some|none,all|most|some|none,right|wrong,5,,high,placeholder,Graduated High School,1580300268432,placeholder,81,male,english spanish,5c378798bef9a20001e3a01a,Describe these results of <strong>Green Valley</strong> so as to make it appear as if there is a <strong>high</strong> success rate without lying.,More than half of green valley students scored a perfect score on their test.,12|12|12|3|3,In this exam,of the students got,of the questions,.,"%{""instances"" => [%{""n_col"" => 12, ""rows"" => [12, 12, 12, 3, 3]}], ""number"" => 16, ""sequence"" => [""AAACC"", ""AAAAC"", ""AAABC""], ""truth_table"" => []}",16,Wed Jan 29 2020 06:04:03 GMT-0600 (Central Standard Time),1580299443031,1|1|1|1|1|1|1|1|1|1|1|1|1|1|1|1|1|1|1|1|1|1|1|1|1|1|1|1|1|1|1|1|1|1|1|1|1|1|1|0|0|0|0|0|0|0|0|0|1|1|1|0|0|0|0|0|0|0|0|0,13.756683333333333,main_trials,7
11637,,108985,31,all|most|some|none,all|most|some|none,right|wrong,5,,low,placeholder,Graduated High School,1580300268432,placeholder,81,male,english spanish,5c378798bef9a20001e3a01a,Describe these results of <strong>Riverside</strong> so as to make it appear as if there is a <strong>low</strong> success rate without lying.,Everyone in riverside got the same score on their math test.,12|12|12|12|12,In this exam,of the students got,of the questions,.,"%{""instances"" => [%{""n_col"" => 12, ""rows"" => '\f\f\f\f\f'}], ""number"" => 20, ""sequence"" => [""AAAAA""], ""truth_table"" => []}",20,Wed Jan 29 2020 06:04:03 GMT-0600 (Central Standard Time),1580299443031,1|1|1|1|1|1|1|1|1|1|1|1|1|1|1|1|1|1|1|1|1|1|1|1|1|1|1|1|1|1|1|1|1|1|1|1|1|1|1|1|1|1|1|1|1|1|1|1|1|1|1|1|1|1|1|1|1|1|1|1,13.756683333333333,main_trials,8
11637,,20515,31,all|most|some|none,all|most|some|none,right|wrong,5,,high,placeholder,Graduated High School,1580300268432,placeholder,81,male,english spanish,5c378798bef9a20001e3a01a,Describe these results of <strong>Green Valley</strong> so as to make it appear as if there is a <strong>high</strong> success rate without lying.,100% of green passed their math test with more than half getting a perfect score.,12|12|12|9|9,In this exam,of the students got,of the questions,.,"%{""instances"" => [%{""n_col"" => 12, ""rows"" => '\f\f\f\t\t'}], ""number"" => 19, ""sequence"" => [""AAABB"", ""AAAAB""], ""truth_table"" => []}",19,Wed Jan 29 2020 06:04:03 GMT-0600 (Central Standard Time),1580299443031,1|1|1|1|1|1|1|1|1|1|1|1|1|1|1|1|1|1|1|1|1|1|1|1|1|1|1|1|1|1|1|1|1|1|1|1|1|1|1|1|1|1|1|1|1|0|0|0|1|1|1|1|1|1|1|1|1|0|0|0,13.756683333333333,main_trials,9
11637,,39645,31,all|most|some|none,all|most|some|none,right|wrong,5,,low,placeholder,Graduated High School,1580300268432,placeholder,81,male,english spanish,5c378798bef9a20001e3a01a,Describe these results of <strong>Riverside</strong> so as to make it appear as if there is a <strong>low</strong> success rate without lying.,Only a little more than a quarter of riverside students passed their math test.,9|9|3|0|0,In this exam,of the students got,of the questions,.,"%{""instances"" => [%{""n_col"" => 12, ""rows"" => [9, 9, 3, 0, 0]}], ""number"" => 6, ""sequence"" => [""BCCCD"", ""BCCDD"", ""BBCDD"", ""BBCCD""], ""truth_table"" => []}",6,Wed Jan 29 2020 06:04:03 GMT-0600 (Central Standard Time),1580299443031,1|1|1|1|1|1|1|1|1|0|0|0|1|1|1|1|1|1|1|1|1|0|0|0|1|1|1|0|0|0|0|0|0|0|0|0|0|0|0|0|0|0|0|0|0|0|0|0|0|0|0|0|0|0|0|0|0|0|0|0,13.756683333333333,main_trials,10
11637,,30402,31,all|most|some|none,all|most|some|none,right|wrong,5,,low,placeholder,Graduated High School,1580300268432,placeholder,81,male,english spanish,5c378798bef9a20001e3a01a,Describe these results of <strong>Riverside</strong> so as to make it appear as if there is a <strong>low</strong> success rate without lying.,Riverside students did terrible on their math test. Not a single question was answered correctly.,0|0|0|0|0,In this exam,of the students got,of the questions,.,"%{""instances"" => [%{""n_col"" => 12, ""rows"" => [0, 0, 0, 0, 0]}], ""number"" => 10, ""sequence"" => [""DDDDD""], ""truth_table"" => []}",10,Wed Jan 29 2020 06:04:03 GMT-0600 (Central Standard Time),1580299443031,0|0|0|0|0|0|0|0|0|0|0|0|0|0|0|0|0|0|0|0|0|0|0|0|0|0|0|0|0|0|0|0|0|0|0|0|0|0|0|0|0|0|0|0|0|0|0|0|0|0|0|0|0|0|0|0|0|0|0|0,13.756683333333333,main_trials,11
11624,,42304,30,all|most|some|none,all|most|some|none,right|wrong,5,,high,placeholder,Higher Degree,1580227873133,placeholder,81,female,English,59249e00b82655000168a40e,Describe these results of <strong>Green Valley</strong> so as to make it appear as if there is a <strong>high</strong> success rate without lying.,All students got correct answers,9|9|3|3|3,In this exam,of the students got,of the questions,.,"%{""instances"" => [%{""n_col"" => 12, ""rows"" => [9, 9, 3, 3, 3]}], ""number"" => 12, ""sequence"" => [""BCCCC"", ""BBCCC""], ""truth_table"" => []}",12,Tue Jan 28 2020 16:03:29 GMT+0000 (GMT Standard Time),1580227409971,1|1|1|1|1|1|1|1|1|0|0|0|1|1|1|1|1|1|1|1|1|0|0|0|1|1|1|0|0|0|0|0|0|0|0|0|1|1|1|0|0|0|0|0|0|0|0|0|1|1|1|0|0|0|0|0|0|0|0|0,7.719366666666667,main_trials,1
11624,,32385,30,all|most|some|none,all|most|some|none,right|wrong,5,,low,placeholder,Higher Degree,1580227873133,placeholder,81,female,English,59249e00b82655000168a40e,Describe these results of <strong>Riverside</strong> so as to make it appear as if there is a <strong>low</strong> success rate without lying.,Over half of the students got no correct answers,12|12|0|0|0,In this exam,of the students got,of the questions,.,"%{""instances"" => [%{""n_col"" => 12, ""rows"" => [12, 12, 0, 0, 0]}], ""number"" => 4, ""sequence"" => [""ADDDD"", ""AADDD"", ""ABDDD"", ""ACDDD""], ""truth_table"" => []}",4,Tue Jan 28 2020 16:03:29 GMT+0000 (GMT Standard Time),1580227409971,1|1|1|1|1|1|1|1|1|1|1|1|1|1|1|1|1|1|1|1|1|1|1|1|0|0|0|0|0|0|0|0|0|0|0|0|0|0|0|0|0|0|0|0|0|0|0|0|0|0|0|0|0|0|0|0|0|0|0|0,7.719366666666667,main_trials,2
11624,,37456,30,all|most|some|none,all|most|some|none,right|wrong,5,,low,placeholder,Higher Degree,1580227873133,placeholder,81,female,English,59249e00b82655000168a40e,Describe these results of <strong>Riverside</strong> so as to make it appear as if there is a <strong>low</strong> success rate without lying.,Over half of the students got all wrong answers,9|9|0|0|0,In this exam,of the students got,of the questions,.,"%{""instances"" => [%{""n_col"" => 12, ""rows"" => [9, 9, 0, 0, 0]}], ""number"" => 3, ""sequence"" => [""BDDDD"", ""BBDDD"", ""BCDDD""], ""truth_table"" => []}",3,Tue Jan 28 2020 16:03:29 GMT+0000 (GMT Standard Time),1580227409971,1|1|1|1|1|1|1|1|1|0|0|0|1|1|1|1|1|1|1|1|1|0|0|0|0|0|0|0|0|0|0|0|0|0|0|0|0|0|0|0|0|0|0|0|0|0|0|0|0|0|0|0|0|0|0|0|0|0|0|0,7.719366666666667,main_trials,3
11624,,35526,30,all|most|some|none,all|most|some|none,right|wrong,5,,low,placeholder,Higher Degree,1580227873133,placeholder,81,female,English,59249e00b82655000168a40e,Describe these results of <strong>Riverside</strong> so as to make it appear as if there is a <strong>low</strong> success rate without lying.,Students had more incorrect answers than correct,9|9|3|0|0,In this exam,of the students got,of the questions,.,"%{""instances"" => [%{""n_col"" => 12, ""rows"" => [9, 9, 3, 0, 0]}], ""number"" => 6, ""sequence"" => [""BCCCD"", ""BCCDD"", ""BBCDD"", ""BBCCD""], ""truth_table"" => []}",6,Tue Jan 28 2020 16:03:29 GMT+0000 (GMT Standard Time),1580227409971,1|1|1|1|1|1|1|1|1|0|0|0|1|1|1|1|1|1|1|1|1|0|0|0|1|1|1|0|0|0|0|0|0|0|0|0|0|0|0|0|0|0|0|0|0|0|0|0|0|0|0|0|0|0|0|0|0|0|0|0,7.719366666666667,main_trials,4
11624,,25133,30,all|most|some|none,all|most|some|none,right|wrong,5,,high,placeholder,Higher Degree,1580227873133,placeholder,81,female,English,59249e00b82655000168a40e,Describe these results of <strong>Green Valley</strong> so as to make it appear as if there is a <strong>high</strong> success rate without lying.,All students had more than 75% correct,9|9|9|9|9,In this exam,of the students got,of the questions,.,"%{""instances"" => [%{""n_col"" => 12, ""rows"" => '\t\t\t\t\t'}], ""number"" => 17, ""sequence"" => [""BBBBB""], ""truth_table"" => []}",17,Tue Jan 28 2020 16:03:29 GMT+0000 (GMT Standard Time),1580227409971,1|1|1|1|1|1|1|1|1|0|0|0|1|1|1|1|1|1|1|1|1|0|0|0|1|1|1|1|1|1|1|1|1|0|0|0|1|1|1|1|1|1|1|1|1|0|0|0|1|1|1|1|1|1|1|1|1|0|0|0,7.719366666666667,main_trials,5
11624,,28093,30,all|most|some|none,all|most|some|none,right|wrong,5,,low,placeholder,Higher Degree,1580227873133,placeholder,81,female,English,59249e00b82655000168a40e,Describe these results of <strong>Riverside</strong> so as to make it appear as if there is a <strong>low</strong> success rate without lying.,Some students got much less than 50% correct,12|12|9|3|3,In this exam,of the students got,of the questions,.,"%{""instances"" => [%{""n_col"" => 12, ""rows"" => [12, 12, 9, 3, 3]}], ""number"" => 15, ""sequence"" => [""ABBBC"", ""ABBCC"", ""AABCC"", ""AABBC""], ""truth_table"" => []}",15,Tue Jan 28 2020 16:03:29 GMT+0000 (GMT Standard Time),1580227409971,1|1|1|1|1|1|1|1|1|1|1|1|1|1|1|1|1|1|1|1|1|1|1|1|1|1|1|1|1|1|1|1|1|0|0|0|1|1|1|0|0|0|0|0|0|0|0|0|1|1|1|0|0|0|0|0|0|0|0|0,7.719366666666667,main_trials,6
11624,,46265,30,all|most|some|none,all|most|some|none,right|wrong,5,,low,placeholder,Higher Degree,1580227873133,placeholder,81,female,English,59249e00b82655000168a40e,Describe these results of <strong>Riverside</strong> so as to make it appear as if there is a <strong>low</strong> success rate without lying.,A majority of students got most answer wrong,12|12|3|3|3,In this exam,of the students got,of the questions,.,"%{""instances"" => [%{""n_col"" => 12, ""rows"" => [12, 12, 3, 3, 3]}], ""number"" => 13, ""sequence"" => [""ACCCC"", ""AACCC"", ""ABCCC""], ""truth_table"" => []}",13,Tue Jan 28 2020 16:03:29 GMT+0000 (GMT Standard Time),1580227409971,1|1|1|1|1|1|1|1|1|1|1|1|1|1|1|1|1|1|1|1|1|1|1|1|1|1|1|0|0|0|0|0|0|0|0|0|1|1|1|0|0|0|0|0|0|0|0|0|1|1|1|0|0|0|0|0|0|0|0|0,7.719366666666667,main_trials,7
11624,,36262,30,all|most|some|none,all|most|some|none,right|wrong,5,,high,placeholder,Higher Degree,1580227873133,placeholder,81,female,English,59249e00b82655000168a40e,Describe these results of <strong>Green Valley</strong> so as to make it appear as if there is a <strong>high</strong> success rate without lying.,Over half of students got 100% correct,12|12|12|0|0,In this exam,of the students got,of the questions,.,"%{""instances"" => [%{""n_col"" => 12, ""rows"" => [12, 12, 12, 0, 0]}], ""number"" => 9, ""sequence"" => [""AAADD"", ""AAAAD"", ""AAABD"", ""AAACD""], ""truth_table"" => []}",9,Tue Jan 28 2020 16:03:29 GMT+0000 (GMT Standard Time),1580227409971,1|1|1|1|1|1|1|1|1|1|1|1|1|1|1|1|1|1|1|1|1|1|1|1|1|1|1|1|1|1|1|1|1|1|1|1|0|0|0|0|0|0|0|0|0|0|0|0|0|0|0|0|0|0|0|0|0|0|0|0,7.719366666666667,main_trials,8
11624,,25145,30,all|most|some|none,all|most|some|none,right|wrong,5,,high,placeholder,Higher Degree,1580227873133,placeholder,81,female,English,59249e00b82655000168a40e,Describe these results of <strong>Green Valley</strong> so as to make it appear as if there is a <strong>high</strong> success rate without lying.,All students got some correct answers,3|3|3|3|3,In this exam,of the students got,of the questions,.,"%{""instances"" => [%{""n_col"" => 12, ""rows"" => [3, 3, 3, 3, 3]}], ""number"" => 11, ""sequence"" => [""CCCCC""], ""truth_table"" => []}",11,Tue Jan 28 2020 16:03:29 GMT+0000 (GMT Standard Time),1580227409971,1|1|1|0|0|0|0|0|0|0|0|0|1|1|1|0|0|0|0|0|0|0|0|0|1|1|1|0|0|0|0|0|0|0|0|0|1|1|1|0|0|0|0|0|0|0|0|0|1|1|1|0|0|0|0|0|0|0|0|0,7.719366666666667,main_trials,9
11624,,43079,30,all|most|some|none,all|most|some|none,right|wrong,5,,low,placeholder,Higher Degree,1580227873133,placeholder,81,female,English,59249e00b82655000168a40e,Describe these results of <strong>Riverside</strong> so as to make it appear as if there is a <strong>low</strong> success rate without lying.,Over 75% of questions asked were answered incorrectly,3|3|0|0|0,In this exam,of the students got,of the questions,.,"%{""instances"" => [%{""n_col"" => 12, ""rows"" => [3, 3, 0, 0, 0]}], ""number"" => 2, ""sequence"" => [""CDDDD"", ""CCDDD""], ""truth_table"" => []}",2,Tue Jan 28 2020 16:03:29 GMT+0000 (GMT Standard Time),1580227409971,1|1|1|0|0|0|0|0|0|0|0|0|1|1|1|0|0|0|0|0|0|0|0|0|0|0|0|0|0|0|0|0|0|0|0|0|0|0|0|0|0|0|0|0|0|0|0|0|0|0|0|0|0|0|0|0|0|0|0|0,7.719366666666667,main_trials,10
