submission_id,QUD,RT,age,bias,choice_options_1,choice_options_2,choice_options_3,column_number,comments,condition,correct,education,endTime,expected,experiment_id,gender,languages,prolific_id,question,response,row_number,sentence_chunk_1,sentence_chunk_2,sentence_chunk_3,sentence_chunk_4,startDate,startTime,stimulus,timeSpent,trial_name,trial_number
11647,,67417,38,0.2,all|most|many|some|few|none,all|most|many|some|few|none,right|wrong,12,,high,NA,Higher Degree,1580336209066,NA,82,male,English,5c3c753320c87d0001d902f7,Describe these results of <strong>Green Valley</strong> so as to make it appear as if there is a <strong>high</strong> success rate without lying.,all|some|right,5,In this exam,of the students got,of the questions,.,Wed Jan 29 2020 22:08:25 GMT+0000 (GMT Standard Time),1580335705674,1|1|1|1|0|1|1|1|0|1|1|1|0|1|1|1|0|1|1|1|0|0|1|0|1|1|1|1|0|0|0|1|0|1|1|0|1|1|1|1|1|1|1|1|1|1|1|0|1|1|1|1|1|1|1|0|1|1|0|1,8.389866666666666,training_trials,1
11647,,36835,38,0.5,all|most|many|some|few|none,all|most|many|some|few|none,right|wrong,12,,low,NA,Higher Degree,1580336209066,NA,82,male,English,5c3c753320c87d0001d902f7,Describe these results of <strong>Riverside</strong> so as to make it appear as if there is a <strong>low</strong> success rate without lying.,all|many|wrong,5,In this exam,of the students got,of the questions,.,Wed Jan 29 2020 22:08:25 GMT+0000 (GMT Standard Time),1580335705674,1|0|1|0|0|1|1|0|1|1|0|0|0|0|0|0|1|1|0|0|1|1|1|1|0|1|1|1|0|1|1|1|0|0|0|0|1|0|1|0|1|1|0|1|1|0|0|0|0|1|1|0|1|1|1|1|1|0|0|1,8.389866666666666,training_trials,2
11647,,19433,38,0.9,all|most|many|some|few|none,all|most|many|some|few|none,right|wrong,12,,high,NA,Higher Degree,1580336209066,NA,82,male,English,5c3c753320c87d0001d902f7,Describe these results of <strong>Green Valley</strong> so as to make it appear as if there is a <strong>high</strong> success rate without lying.,all|most|right,5,In this exam,of the students got,of the questions,.,Wed Jan 29 2020 22:08:25 GMT+0000 (GMT Standard Time),1580335705674,0|0|0|0|0|0|0|0|0|0|0|0|0|0|0|0|0|0|1|0|0|0|0|0|0|0|1|0|0|0|0|0|0|0|0|0|0|0|0|0|0|0|0|1|0|0|0|0|0|0|0|0|0|0|0|0|0|0|0|0,8.389866666666666,training_trials,3
11647,,19263,38,0.6,all|most|many|some|few|none,all|most|many|some|few|none,right|wrong,12,,low,placeholder,Higher Degree,1580336209066,placeholder,82,male,English,5c3c753320c87d0001d902f7,Describe these results of <strong>Riverside</strong> so as to make it appear as if there is a <strong>low</strong> success rate without lying.,all|some|wrong,5,In this exam,of the students got,of the questions,.,Wed Jan 29 2020 22:08:25 GMT+0000 (GMT Standard Time),1580335705674,0|0|1|0|0|0|0|1|0|0|0|0|0|0|1|0|0|0|1|1|0|1|1|0|0|0|1|0|0|0|0|1|0|0|1|0|0|1|0|0|0|1|0|0|1|1|1|0|1|1|0|0|0|1|0|1|0|0|1|1,8.389866666666666,main_trials,1
11647,,14349,38,0.3,all|most|many|some|few|none,all|most|many|some|few|none,right|wrong,12,,low,placeholder,Higher Degree,1580336209066,placeholder,82,male,English,5c3c753320c87d0001d902f7,Describe these results of <strong>Riverside</strong> so as to make it appear as if there is a <strong>low</strong> success rate without lying.,all|most|wrong,5,In this exam,of the students got,of the questions,.,Wed Jan 29 2020 22:08:25 GMT+0000 (GMT Standard Time),1580335705674,1|0|0|1|1|1|1|1|0|1|1|1|1|1|1|1|1|0|1|1|0|0|1|1|1|1|0|1|1|1|1|1|1|0|1|0|1|0|1|1|0|1|1|1|0|1|1|1|0|0|0|1|1|1|0|0|1|1|0|0,8.389866666666666,main_trials,2
11647,,18190,38,0.4,all|most|many|some|few|none,all|most|many|some|few|none,right|wrong,12,,low,placeholder,Higher Degree,1580336209066,placeholder,82,male,English,5c3c753320c87d0001d902f7,Describe these results of <strong>Riverside</strong> so as to make it appear as if there is a <strong>low</strong> success rate without lying.,all|most|wrong,5,In this exam,of the students got,of the questions,.,Wed Jan 29 2020 22:08:25 GMT+0000 (GMT Standard Time),1580335705674,1|1|1|1|0|0|1|0|0|0|1|1|1|1|1|1|0|0|1|1|1|1|0|1|0|1|1|0|1|1|1|1|0|1|1|1|1|0|1|0|1|1|1|1|1|0|1|0|0|1|1|0|0|0|1|1|0|1|0|0,8.389866666666666,main_trials,3
11647,,44885,38,0.2,all|most|many|some|few|none,all|most|many|some|few|none,right|wrong,12,,high,placeholder,Higher Degree,1580336209066,placeholder,82,male,English,5c3c753320c87d0001d902f7,Describe these results of <strong>Green Valley</strong> so as to make it appear as if there is a <strong>high</strong> success rate without lying.,many|some|right,5,In this exam,of the students got,of the questions,.,Wed Jan 29 2020 22:08:25 GMT+0000 (GMT Standard Time),1580335705674,1|1|1|1|1|1|1|1|1|1|1|1|1|1|1|1|1|1|1|1|1|1|0|1|1|1|1|1|0|1|1|0|1|1|1|1|1|1|1|1|1|1|1|1|1|1|1|1|0|1|1|1|1|0|0|1|0|1|1|1,8.389866666666666,main_trials,4
11647,,16298,38,0.7,all|most|many|some|few|none,all|most|many|some|few|none,right|wrong,12,,low,placeholder,Higher Degree,1580336209066,placeholder,82,male,English,5c3c753320c87d0001d902f7,Describe these results of <strong>Riverside</strong> so as to make it appear as if there is a <strong>low</strong> success rate without lying.,all|some|wrong,5,In this exam,of the students got,of the questions,.,Wed Jan 29 2020 22:08:25 GMT+0000 (GMT Standard Time),1580335705674,0|0|1|0|1|0|0|1|0|1|0|1|1|0|0|0|0|1|0|1|0|0|0|1|0|0|1|0|0|0|0|0|1|0|1|0|0|0|0|0|1|1|1|1|0|1|0|0|0|1|0|0|0|0|0|0|1|1|0|0,8.389866666666666,main_trials,5
11647,,24393,38,0.6,all|most|many|some|few|none,all|most|many|some|few|none,right|wrong,12,,high,placeholder,Higher Degree,1580336209066,placeholder,82,male,English,5c3c753320c87d0001d902f7,Describe these results of <strong>Green Valley</strong> so as to make it appear as if there is a <strong>high</strong> success rate without lying.,all|many|right,5,In this exam,of the students got,of the questions,.,Wed Jan 29 2020 22:08:25 GMT+0000 (GMT Standard Time),1580335705674,0|0|1|0|0|1|1|0|1|1|1|1|0|1|0|0|0|1|0|1|1|1|1|0|1|1|1|1|0|0|1|1|1|0|0|1|0|0|0|1|1|1|1|0|1|1|0|1|0|0|0|1|0|0|0|1|1|0|1|0,8.389866666666666,main_trials,6
11647,,22676,38,0.4,all|most|many|some|few|none,all|most|many|some|few|none,right|wrong,12,,high,placeholder,Higher Degree,1580336209066,placeholder,82,male,English,5c3c753320c87d0001d902f7,Describe these results of <strong>Green Valley</strong> so as to make it appear as if there is a <strong>high</strong> success rate without lying.,all|many|right,5,In this exam,of the students got,of the questions,.,Wed Jan 29 2020 22:08:25 GMT+0000 (GMT Standard Time),1580335705674,1|1|0|0|0|0|1|0|0|0|0|0|0|1|1|0|0|0|0|1|0|1|1|0|1|1|1|0|1|0|0|1|1|1|1|1|0|1|0|1|0|0|1|1|1|1|1|1|1|1|0|1|1|1|0|0|1|0|1|1,8.389866666666666,main_trials,7
11647,,15057,38,0.5,all|most|many|some|few|none,all|most|many|some|few|none,right|wrong,12,,high,placeholder,Higher Degree,1580336209066,placeholder,82,male,English,5c3c753320c87d0001d902f7,Describe these results of <strong>Green Valley</strong> so as to make it appear as if there is a <strong>high</strong> success rate without lying.,all|most|right,5,In this exam,of the students got,of the questions,.,Wed Jan 29 2020 22:08:25 GMT+0000 (GMT Standard Time),1580335705674,1|0|0|0|1|0|1|0|1|1|1|0|0|1|0|0|0|0|0|1|1|0|0|1|1|0|0|0|1|1|1|0|0|0|1|0|1|1|1|0|1|1|0|1|0|0|1|1|0|1|0|0|1|1|0|0|1|0|1|1,8.389866666666666,main_trials,8
11647,,21062,38,0.3,all|most|many|some|few|none,all|most|many|some|few|none,right|wrong,12,,high,placeholder,Higher Degree,1580336209066,placeholder,82,male,English,5c3c753320c87d0001d902f7,Describe these results of <strong>Green Valley</strong> so as to make it appear as if there is a <strong>high</strong> success rate without lying.,all|some|right,5,In this exam,of the students got,of the questions,.,Wed Jan 29 2020 22:08:25 GMT+0000 (GMT Standard Time),1580335705674,1|0|1|1|1|1|0|1|1|1|1|1|1|1|1|0|1|1|1|1|1|1|1|1|1|1|0|1|1|1|1|1|0|1|1|1|1|1|0|1|1|0|0|0|1|1|1|0|1|1|1|0|1|1|1|1|1|1|0|1,8.389866666666666,main_trials,9
11647,,20619,38,0.8,all|most|many|some|few|none,all|most|many|some|few|none,right|wrong,12,,low,placeholder,Higher Degree,1580336209066,placeholder,82,male,English,5c3c753320c87d0001d902f7,Describe these results of <strong>Riverside</strong> so as to make it appear as if there is a <strong>low</strong> success rate without lying.,all|some|wrong,5,In this exam,of the students got,of the questions,.,Wed Jan 29 2020 22:08:25 GMT+0000 (GMT Standard Time),1580335705674,0|0|1|0|0|0|0|1|0|0|0|0|0|0|1|0|0|0|0|0|1|0|0|0|0|0|0|0|0|0|0|0|0|0|0|0|0|0|1|0|0|0|0|1|0|0|0|0|0|0|1|1|0|0|0|0|0|1|0|0,8.389866666666666,main_trials,10
11647,,19058,38,0.7,all|most|many|some|few|none,all|most|many|some|few|none,right|wrong,12,,high,placeholder,Higher Degree,1580336209066,placeholder,82,male,English,5c3c753320c87d0001d902f7,Describe these results of <strong>Green Valley</strong> so as to make it appear as if there is a <strong>high</strong> success rate without lying.,most|most|right,5,In this exam,of the students got,of the questions,.,Wed Jan 29 2020 22:08:25 GMT+0000 (GMT Standard Time),1580335705674,1|0|0|0|0|0|1|0|0|0|0|0|1|1|1|0|1|1|1|1|1|0|0|0|0|0|1|1|1|1|0|0|0|0|0|0|0|0|0|1|0|1|1|0|0|1|1|1|1|0|1|1|0|0|1|0|0|0|0|0,8.389866666666666,main_trials,11
11647,,12762,38,0.8,all|most|many|some|few|none,all|most|many|some|few|none,right|wrong,12,,high,placeholder,Higher Degree,1580336209066,placeholder,82,male,English,5c3c753320c87d0001d902f7,Describe these results of <strong>Green Valley</strong> so as to make it appear as if there is a <strong>high</strong> success rate without lying.,all|most|right,5,In this exam,of the students got,of the questions,.,Wed Jan 29 2020 22:08:25 GMT+0000 (GMT Standard Time),1580335705674,0|1|0|0|0|0|0|0|0|1|1|0|0|0|0|1|0|0|0|0|0|0|0|0|0|1|0|1|0|0|0|0|1|0|1|0|0|0|0|0|0|0|0|0|1|0|0|1|0|0|0|0|0|0|0|0|0|0|1|0,8.389866666666666,main_trials,12
11647,,10754,38,0.2,all|most|many|some|few|none,all|most|many|some|few|none,right|wrong,12,,low,placeholder,Higher Degree,1580336209066,placeholder,82,male,English,5c3c753320c87d0001d902f7,Describe these results of <strong>Riverside</strong> so as to make it appear as if there is a <strong>low</strong> success rate without lying.,all|most|wrong,5,In this exam,of the students got,of the questions,.,Wed Jan 29 2020 22:08:25 GMT+0000 (GMT Standard Time),1580335705674,1|1|1|1|0|1|0|1|1|1|1|1|1|1|1|1|0|1|1|1|1|1|1|1|1|1|1|1|1|1|0|1|1|1|1|0|1|1|1|1|1|0|1|1|1|0|1|1|0|1|1|0|1|1|1|1|1|0|1|1,8.389866666666666,main_trials,13
11647,,16661,38,0.5,all|most|many|some|few|none,all|most|many|some|few|none,right|wrong,12,,low,placeholder,Higher Degree,1580336209066,placeholder,82,male,English,5c3c753320c87d0001d902f7,Describe these results of <strong>Riverside</strong> so as to make it appear as if there is a <strong>low</strong> success rate without lying.,all|many|wrong,5,In this exam,of the students got,of the questions,.,Wed Jan 29 2020 22:08:25 GMT+0000 (GMT Standard Time),1580335705674,0|1|0|1|1|0|0|0|1|0|0|1|0|1|1|1|0|0|0|1|1|0|0|1|1|0|1|1|1|1|1|1|1|0|0|1|0|1|0|1|1|0|1|1|0|0|0|1|1|1|1|1|0|1|0|0|1|0|1|0,8.389866666666666,main_trials,14
11648,,31267,23,0.9,all|most|many|some|few|none,all|most|many|some|few|none,right|wrong,12,,high,NA,Graduated College,1580336341588,NA,82,male,English,5a9ae74a6219a30001d349fe,Describe these results of <strong>Green Valley</strong> so as to make it appear as if there is a <strong>high</strong> success rate without lying.,all|most|right,5,In this exam,of the students got,of the questions,.,Wed Jan 29 2020 16:11:36 GMT-0600 (Central Standard Time),1580335896874,0|0|0|0|1|0|1|0|0|0|0|0|0|0|0|0|0|0|0|0|0|0|0|0|0|1|0|0|0|0|0|0|1|0|0|0|0|0|1|0|0|0|0|0|0|0|0|1|0|0|0|0|0|0|0|0|0|0|0|0,7.4119,training_trials,1
11648,,56152,23,0.2,all|most|many|some|few|none,all|most|many|some|few|none,right|wrong,12,,high,NA,Graduated College,1580336341588,NA,82,male,English,5a9ae74a6219a30001d349fe,Describe these results of <strong>Green Valley</strong> so as to make it appear as if there is a <strong>high</strong> success rate without lying.,none|all|wrong,5,In this exam,of the students got,of the questions,.,Wed Jan 29 2020 16:11:36 GMT-0600 (Central Standard Time),1580335896874,0|1|1|1|1|0|1|1|1|1|0|1|0|1|1|1|1|1|1|0|1|1|1|1|1|1|1|1|1|0|1|0|0|1|1|1|1|1|0|1|1|1|1|0|1|1|1|0|1|1|1|1|1|1|0|1|1|0|1|0,7.4119,training_trials,2
11648,,17831,23,0.5,all|most|many|some|few|none,all|most|many|some|few|none,right|wrong,12,,low,NA,Graduated College,1580336341588,NA,82,male,English,5a9ae74a6219a30001d349fe,Describe these results of <strong>Riverside</strong> so as to make it appear as if there is a <strong>low</strong> success rate without lying.,none|all|right,5,In this exam,of the students got,of the questions,.,Wed Jan 29 2020 16:11:36 GMT-0600 (Central Standard Time),1580335896874,0|0|0|0|0|0|1|1|1|0|1|1|1|1|0|1|1|1|1|0|1|0|0|1|0|0|0|0|0|1|1|0|0|1|1|0|1|1|0|1|1|0|0|1|0|0|0|1|0|1|1|0|1|0|1|0|1|0|1|0,7.4119,training_trials,3
11648,,29137,23,0.3,all|most|many|some|few|none,all|most|many|some|few|none,right|wrong,12,,low,placeholder,Graduated College,1580336341588,placeholder,82,male,English,5a9ae74a6219a30001d349fe,Describe these results of <strong>Riverside</strong> so as to make it appear as if there is a <strong>low</strong> success rate without lying.,none|all|right,5,In this exam,of the students got,of the questions,.,Wed Jan 29 2020 16:11:36 GMT-0600 (Central Standard Time),1580335896874,1|1|1|0|0|0|1|1|1|1|0|1|1|1|1|0|1|0|0|0|0|1|1|1|0|0|0|1|1|1|0|0|1|1|1|1|0|1|1|1|1|1|0|0|1|0|1|0|1|0|1|1|0|0|1|1|1|0|1|1,7.4119,main_trials,1
11648,,13089,23,0.7,all|most|many|some|few|none,all|most|many|some|few|none,right|wrong,12,,high,placeholder,Graduated College,1580336341588,placeholder,82,male,English,5a9ae74a6219a30001d349fe,Describe these results of <strong>Green Valley</strong> so as to make it appear as if there is a <strong>high</strong> success rate without lying.,all|many|right,5,In this exam,of the students got,of the questions,.,Wed Jan 29 2020 16:11:36 GMT-0600 (Central Standard Time),1580335896874,1|0|1|0|1|0|0|0|1|0|0|0|0|1|0|0|0|0|1|0|0|0|1|1|0|1|0|0|0|0|1|0|0|1|1|0|0|1|0|1|1|0|1|0|1|1|0|1|1|0|0|0|1|0|1|0|0|0|1|1,7.4119,main_trials,2
11648,,16148,23,0.6,all|most|many|some|few|none,all|most|many|some|few|none,right|wrong,12,,high,placeholder,Graduated College,1580336341588,placeholder,82,male,English,5a9ae74a6219a30001d349fe,Describe these results of <strong>Green Valley</strong> so as to make it appear as if there is a <strong>high</strong> success rate without lying.,many|most|right,5,In this exam,of the students got,of the questions,.,Wed Jan 29 2020 16:11:36 GMT-0600 (Central Standard Time),1580335896874,0|0|1|0|1|1|0|0|0|1|0|0|0|0|1|0|1|1|0|1|0|1|0|0|0|0|0|1|0|1|0|0|0|1|0|1|1|0|0|1|1|1|1|1|1|0|1|0|1|0|0|0|1|1|0|1|1|0|1|1,7.4119,main_trials,3
11648,,24475,23,0.3,all|most|many|some|few|none,all|most|many|some|few|none,right|wrong,12,,high,placeholder,Graduated College,1580336341588,placeholder,82,male,English,5a9ae74a6219a30001d349fe,Describe these results of <strong>Green Valley</strong> so as to make it appear as if there is a <strong>high</strong> success rate without lying.,none|none|right,5,In this exam,of the students got,of the questions,.,Wed Jan 29 2020 16:11:36 GMT-0600 (Central Standard Time),1580335896874,0|1|1|1|1|1|0|1|0|0|1|1|1|0|1|1|1|1|1|1|0|0|1|0|1|1|1|0|0|1|1|1|1|1|1|1|1|0|1|0|0|0|0|1|1|1|0|0|1|1|1|1|0|0|1|1|1|1|1|1,7.4119,main_trials,4
11648,,21221,23,0.5,all|most|many|some|few|none,all|most|many|some|few|none,right|wrong,12,,low,placeholder,Graduated College,1580336341588,placeholder,82,male,English,5a9ae74a6219a30001d349fe,Describe these results of <strong>Riverside</strong> so as to make it appear as if there is a <strong>low</strong> success rate without lying.,all|some|wrong,5,In this exam,of the students got,of the questions,.,Wed Jan 29 2020 16:11:36 GMT-0600 (Central Standard Time),1580335896874,0|1|1|1|1|0|0|1|1|0|1|0|0|0|1|1|0|0|0|0|1|0|1|0|0|0|0|1|1|1|1|0|0|0|1|1|0|1|0|0|1|0|1|0|0|1|1|1|1|0|0|0|1|0|1|0|0|1|0|0,7.4119,main_trials,5
11648,,9619,23,0.8,all|most|many|some|few|none,all|most|many|some|few|none,right|wrong,12,,high,placeholder,Graduated College,1580336341588,placeholder,82,male,English,5a9ae74a6219a30001d349fe,Describe these results of <strong>Green Valley</strong> so as to make it appear as if there is a <strong>high</strong> success rate without lying.,all|most|right,5,In this exam,of the students got,of the questions,.,Wed Jan 29 2020 16:11:36 GMT-0600 (Central Standard Time),1580335896874,0|0|0|0|1|0|0|0|0|0|0|1|0|0|0|0|1|1|0|1|0|0|0|0|0|0|0|1|0|1|0|0|1|0|0|0|0|0|0|0|1|1|0|1|0|0|0|0|1|0|0|1|1|0|0|1|0|0|0|0,7.4119,main_trials,6
11648,,31065,23,0.2,all|most|many|some|few|none,all|most|many|some|few|none,right|wrong,12,,high,placeholder,Graduated College,1580336341588,placeholder,82,male,English,5a9ae74a6219a30001d349fe,Describe these results of <strong>Green Valley</strong> so as to make it appear as if there is a <strong>high</strong> success rate without lying.,all|few|right,5,In this exam,of the students got,of the questions,.,Wed Jan 29 2020 16:11:36 GMT-0600 (Central Standard Time),1580335896874,1|0|1|1|1|0|1|1|1|1|1|1|1|1|1|1|1|1|0|1|1|1|1|0|0|1|1|1|1|1|1|0|1|1|1|1|1|1|0|1|1|1|1|1|1|1|1|1|1|1|1|1|0|1|1|1|1|1|1|1,7.4119,main_trials,7
11648,,11478,23,0.8,all|most|many|some|few|none,all|most|many|some|few|none,right|wrong,12,,low,placeholder,Graduated College,1580336341588,placeholder,82,male,English,5a9ae74a6219a30001d349fe,Describe these results of <strong>Riverside</strong> so as to make it appear as if there is a <strong>low</strong> success rate without lying.,all|most|right,5,In this exam,of the students got,of the questions,.,Wed Jan 29 2020 16:11:36 GMT-0600 (Central Standard Time),1580335896874,0|1|1|0|0|1|0|0|0|0|0|0|0|0|1|0|0|0|0|0|0|0|0|1|0|0|0|0|0|0|0|1|0|0|1|0|0|1|0|0|0|0|0|0|0|1|0|0|1|0|0|0|1|0|1|0|0|1|0|0,7.4119,main_trials,8
11648,,11822,23,0.5,all|most|many|some|few|none,all|most|many|some|few|none,right|wrong,12,,high,placeholder,Graduated College,1580336341588,placeholder,82,male,English,5a9ae74a6219a30001d349fe,Describe these results of <strong>Green Valley</strong> so as to make it appear as if there is a <strong>high</strong> success rate without lying.,some|most|right,5,In this exam,of the students got,of the questions,.,Wed Jan 29 2020 16:11:36 GMT-0600 (Central Standard Time),1580335896874,1|0|1|0|0|0|0|1|1|1|1|0|0|1|1|1|1|1|1|0|0|1|1|0|1|0|1|0|1|0|1|1|1|1|1|1|1|1|1|1|1|0|0|1|1|0|1|0|1|1|0|0|0|0|0|0|1|1|0|1,7.4119,main_trials,9
11648,,14435,23,0.4,all|most|many|some|few|none,all|most|many|some|few|none,right|wrong,12,,low,placeholder,Graduated College,1580336341588,placeholder,82,male,English,5a9ae74a6219a30001d349fe,Describe these results of <strong>Riverside</strong> so as to make it appear as if there is a <strong>low</strong> success rate without lying.,most|many|wrong,5,In this exam,of the students got,of the questions,.,Wed Jan 29 2020 16:11:36 GMT-0600 (Central Standard Time),1580335896874,0|1|0|0|0|0|1|0|1|1|1|1|0|1|0|1|0|1|1|1|0|0|1|1|0|0|1|1|0|0|1|0|0|0|1|0|0|1|1|1|0|0|1|1|1|1|1|1|0|1|0|1|1|0|1|1|0|1|1|0,7.4119,main_trials,10
11648,,23997,23,0.2,all|most|many|some|few|none,all|most|many|some|few|none,right|wrong,12,,low,placeholder,Graduated College,1580336341588,placeholder,82,male,English,5a9ae74a6219a30001d349fe,Describe these results of <strong>Riverside</strong> so as to make it appear as if there is a <strong>low</strong> success rate without lying.,most|few|right,5,In this exam,of the students got,of the questions,.,Wed Jan 29 2020 16:11:36 GMT-0600 (Central Standard Time),1580335896874,1|1|1|1|1|1|0|0|1|1|1|1|1|1|1|1|1|1|0|1|1|1|1|0|1|1|1|1|1|1|1|1|1|1|1|0|0|0|1|0|0|1|1|1|1|1|1|0|1|1|1|0|1|0|1|0|1|0|1|0,7.4119,main_trials,11
11648,,21998,23,0.7,all|most|many|some|few|none,all|most|many|some|few|none,right|wrong,12,,low,placeholder,Graduated College,1580336341588,placeholder,82,male,English,5a9ae74a6219a30001d349fe,Describe these results of <strong>Riverside</strong> so as to make it appear as if there is a <strong>low</strong> success rate without lying.,most|some|wrong,5,In this exam,of the students got,of the questions,.,Wed Jan 29 2020 16:11:36 GMT-0600 (Central Standard Time),1580335896874,0|0|0|0|0|0|0|1|0|0|1|0|0|0|0|0|0|0|0|1|0|0|0|0|1|1|0|1|1|0|0|1|0|0|0|0|0|0|0|1|0|1|0|1|0|0|0|0|0|0|0|0|1|1|0|0|0|0|0|1,7.4119,main_trials,12
11648,,12674,23,0.6,all|most|many|some|few|none,all|most|many|some|few|none,right|wrong,12,,low,placeholder,Graduated College,1580336341588,placeholder,82,male,English,5a9ae74a6219a30001d349fe,Describe these results of <strong>Riverside</strong> so as to make it appear as if there is a <strong>low</strong> success rate without lying.,many|some|wrong,5,In this exam,of the students got,of the questions,.,Wed Jan 29 2020 16:11:36 GMT-0600 (Central Standard Time),1580335896874,0|0|0|0|0|1|0|0|1|0|0|0|0|1|0|1|0|0|1|0|0|0|1|0|0|1|1|0|0|0|0|1|0|0|0|1|0|0|0|0|0|1|1|0|0|1|0|1|0|1|1|0|0|0|0|0|0|0|0|0,7.4119,main_trials,13
11648,,10314,23,0.4,all|most|many|some|few|none,all|most|many|some|few|none,right|wrong,12,,high,placeholder,Graduated College,1580336341588,placeholder,82,male,English,5a9ae74a6219a30001d349fe,Describe these results of <strong>Green Valley</strong> so as to make it appear as if there is a <strong>high</strong> success rate without lying.,some|many|right,5,In this exam,of the students got,of the questions,.,Wed Jan 29 2020 16:11:36 GMT-0600 (Central Standard Time),1580335896874,1|1|1|0|1|1|1|0|0|1|1|1|1|0|1|1|1|1|0|1|1|0|0|1|0|0|1|0|0|0|1|1|1|0|1|1|0|1|1|0|0|1|1|1|0|1|0|1|1|0|1|1|1|1|0|0|1|1|0|1,7.4119,main_trials,14
11646,,51530,20,0.5,all|most|many|some|few|none,all|most|many|some|few|none,right|wrong,12,,low,NA,Graduated High School,1580336114502,NA,82,female,English,5c761e74b80b460016bd0bd9,Describe these results of <strong>Riverside</strong> so as to make it appear as if there is a <strong>low</strong> success rate without lying.,many|most|wrong,5,In this exam,of the students got,of the questions,.,Wed Jan 29 2020 17:08:54 GMT-0500 (Eastern Standard Time),1580335734517,1|1|1|1|0|1|0|1|1|1|0|0|1|1|0|0|0|0|1|1|1|1|0|1|1|0|0|1|0|0|1|1|0|1|1|0|1|1|1|1|0|1|0|1|1|0|0|1|1|1|1|0|1|0|0|1|0|0|0|0,6.333083333333334,training_trials,1
11646,,26581,20,0.2,all|most|many|some|few|none,all|most|many|some|few|none,right|wrong,12,,high,NA,Graduated High School,1580336114502,NA,82,female,English,5c761e74b80b460016bd0bd9,Describe these results of <strong>Green Valley</strong> so as to make it appear as if there is a <strong>high</strong> success rate without lying.,all|some|right,5,In this exam,of the students got,of the questions,.,Wed Jan 29 2020 17:08:54 GMT-0500 (Eastern Standard Time),1580335734517,1|1|1|1|1|1|1|1|1|0|1|1|1|1|1|1|1|1|1|1|0|0|1|1|1|0|1|1|1|1|1|1|0|1|1|1|1|1|1|1|1|1|1|1|1|1|0|1|1|1|1|0|1|1|1|1|1|1|1|0,6.333083333333334,training_trials,2
11646,,21097,20,0.9,all|most|many|some|few|none,all|most|many|some|few|none,right|wrong,12,,high,NA,Graduated High School,1580336114502,NA,82,female,English,5c761e74b80b460016bd0bd9,Describe these results of <strong>Green Valley</strong> so as to make it appear as if there is a <strong>high</strong> success rate without lying.,all|most|right,5,In this exam,of the students got,of the questions,.,Wed Jan 29 2020 17:08:54 GMT-0500 (Eastern Standard Time),1580335734517,0|0|0|0|1|0|0|0|0|0|0|0|0|0|0|0|0|0|0|0|0|0|0|0|0|0|0|0|0|0|0|0|1|0|0|0|0|0|0|0|0|0|0|0|0|0|0|0|0|0|0|0|0|0|0|0|0|1|0|0,6.333083333333334,training_trials,3
11646,,15755,20,0.8,all|most|many|some|few|none,all|most|many|some|few|none,right|wrong,12,,low,placeholder,Graduated High School,1580336114502,placeholder,82,female,English,5c761e74b80b460016bd0bd9,Describe these results of <strong>Riverside</strong> so as to make it appear as if there is a <strong>low</strong> success rate without lying.,all|some|wrong,5,In this exam,of the students got,of the questions,.,Wed Jan 29 2020 17:08:54 GMT-0500 (Eastern Standard Time),1580335734517,0|0|1|0|1|0|0|1|0|1|0|0|0|0|0|0|0|0|0|1|1|0|0|1|0|0|0|0|0|0|0|0|1|1|0|1|0|0|1|0|0|0|0|0|0|0|0|0|0|0|1|1|0|0|1|1|0|0|0|1,6.333083333333334,main_trials,1
11646,,14146,20,0.2,all|most|many|some|few|none,all|most|many|some|few|none,right|wrong,12,,low,placeholder,Graduated High School,1580336114502,placeholder,82,female,English,5c761e74b80b460016bd0bd9,Describe these results of <strong>Riverside</strong> so as to make it appear as if there is a <strong>low</strong> success rate without lying.,most|most|wrong,5,In this exam,of the students got,of the questions,.,Wed Jan 29 2020 17:08:54 GMT-0500 (Eastern Standard Time),1580335734517,1|1|1|1|1|1|1|1|1|1|1|1|1|0|1|0|0|1|0|1|1|1|1|1|0|1|0|1|1|1|1|1|0|1|1|1|1|1|1|1|0|1|1|1|0|1|1|1|1|0|1|1|1|1|1|1|1|1|1|0,6.333083333333334,main_trials,2
11646,,19249,20,0.3,all|most|many|some|few|none,all|most|many|some|few|none,right|wrong,12,,high,placeholder,Graduated High School,1580336114502,placeholder,82,female,English,5c761e74b80b460016bd0bd9,Describe these results of <strong>Green Valley</strong> so as to make it appear as if there is a <strong>high</strong> success rate without lying.,most|many|right,5,In this exam,of the students got,of the questions,.,Wed Jan 29 2020 17:08:54 GMT-0500 (Eastern Standard Time),1580335734517,0|1|1|1|1|0|1|1|0|1|1|1|0|1|1|0|1|1|1|1|1|1|1|1|1|1|1|1|0|0|0|1|0|1|1|1|0|0|1|1|1|1|1|0|0|0|0|0|0|1|0|0|0|0|1|0|0|0|1|0,6.333083333333334,main_trials,3
11646,,15231,20,0.7,all|most|many|some|few|none,all|most|many|some|few|none,right|wrong,12,,low,placeholder,Graduated High School,1580336114502,placeholder,82,female,English,5c761e74b80b460016bd0bd9,Describe these results of <strong>Riverside</strong> so as to make it appear as if there is a <strong>low</strong> success rate without lying.,all|many|wrong,5,In this exam,of the students got,of the questions,.,Wed Jan 29 2020 17:08:54 GMT-0500 (Eastern Standard Time),1580335734517,0|0|0|1|0|1|1|1|0|0|0|0|0|0|1|0|0|0|0|0|0|1|1|0|0|0|0|0|0|0|0|1|1|1|0|1|0|1|0|1|0|0|0|1|0|1|0|0|0|0|1|0|1|1|0|0|0|0|0|1,6.333083333333334,main_trials,4
11646,,8981,20,0.4,all|most|many|some|few|none,all|most|many|some|few|none,right|wrong,12,,low,placeholder,Graduated High School,1580336114502,placeholder,82,female,English,5c761e74b80b460016bd0bd9,Describe these results of <strong>Riverside</strong> so as to make it appear as if there is a <strong>low</strong> success rate without lying.,most|most|wrong,5,In this exam,of the students got,of the questions,.,Wed Jan 29 2020 17:08:54 GMT-0500 (Eastern Standard Time),1580335734517,1|0|1|1|0|0|1|0|1|1|0|1|0|1|1|1|1|0|1|1|1|0|1|1|0|1|1|1|0|1|1|0|0|0|1|1|0|0|1|1|1|1|1|0|0|1|1|0|0|1|0|1|1|0|0|0|0|1|1|1,6.333083333333334,main_trials,5
11646,,15602,20,0.5,all|most|many|some|few|none,all|most|many|some|few|none,right|wrong,12,,low,placeholder,Graduated High School,1580336114502,placeholder,82,female,English,5c761e74b80b460016bd0bd9,Describe these results of <strong>Riverside</strong> so as to make it appear as if there is a <strong>low</strong> success rate without lying.,many|many|wrong,5,In this exam,of the students got,of the questions,.,Wed Jan 29 2020 17:08:54 GMT-0500 (Eastern Standard Time),1580335734517,0|1|0|0|0|0|0|0|1|0|0|0|1|0|1|0|1|0|1|1|0|0|0|0|1|1|1|1|1|1|1|1|1|1|0|1|0|0|0|1|0|0|0|1|0|0|0|1|0|1|1|0|0|0|0|1|1|1|1|1,6.333083333333334,main_trials,6
11646,,13523,20,0.3,all|most|many|some|few|none,all|most|many|some|few|none,right|wrong,12,,low,placeholder,Graduated High School,1580336114502,placeholder,82,female,English,5c761e74b80b460016bd0bd9,Describe these results of <strong>Riverside</strong> so as to make it appear as if there is a <strong>low</strong> success rate without lying.,many|most|wrong,5,In this exam,of the students got,of the questions,.,Wed Jan 29 2020 17:08:54 GMT-0500 (Eastern Standard Time),1580335734517,0|1|1|1|0|1|1|1|0|0|1|1|0|1|1|1|0|1|0|1|0|0|1|1|1|1|1|1|1|1|1|0|1|1|1|1|0|0|0|1|1|0|1|1|1|1|1|1|0|1|1|0|0|0|1|1|0|0|1|0,6.333083333333334,main_trials,7
11646,,21084,20,0.2,all|most|many|some|few|none,all|most|many|some|few|none,right|wrong,12,,high,placeholder,Graduated High School,1580336114502,placeholder,82,female,English,5c761e74b80b460016bd0bd9,Describe these results of <strong>Green Valley</strong> so as to make it appear as if there is a <strong>high</strong> success rate without lying.,most|some|right,5,In this exam,of the students got,of the questions,.,Wed Jan 29 2020 17:08:54 GMT-0500 (Eastern Standard Time),1580335734517,0|1|1|1|1|0|1|0|1|0|1|1|1|1|1|1|1|0|1|0|0|1|1|1|1|1|1|1|0|1|0|1|0|1|1|1|1|0|1|1|1|1|1|1|1|1|0|1|1|1|1|1|1|1|1|1|1|1|1|1,6.333083333333334,main_trials,8
11646,,11060,20,0.5,all|most|many|some|few|none,all|most|many|some|few|none,right|wrong,12,,high,placeholder,Graduated High School,1580336114502,placeholder,82,female,English,5c761e74b80b460016bd0bd9,Describe these results of <strong>Green Valley</strong> so as to make it appear as if there is a <strong>high</strong> success rate without lying.,many|many|right,5,In this exam,of the students got,of the questions,.,Wed Jan 29 2020 17:08:54 GMT-0500 (Eastern Standard Time),1580335734517,0|0|0|1|1|1|0|0|0|0|1|0|0|0|0|0|1|1|1|0|0|0|0|0|1|1|0|1|0|0|1|1|1|1|0|1|0|0|1|1|1|1|0|0|0|1|1|0|0|1|0|1|1|1|1|1|1|0|0|1,6.333083333333334,main_trials,9
11646,,15215,20,0.6,all|most|many|some|few|none,all|most|many|some|few|none,right|wrong,12,,low,placeholder,Graduated High School,1580336114502,placeholder,82,female,English,5c761e74b80b460016bd0bd9,Describe these results of <strong>Riverside</strong> so as to make it appear as if there is a <strong>low</strong> success rate without lying.,all|some|wrong,5,In this exam,of the students got,of the questions,.,Wed Jan 29 2020 17:08:54 GMT-0500 (Eastern Standard Time),1580335734517,1|0|1|1|1|0|0|0|1|0|0|0|0|0|0|0|0|0|1|0|1|0|0|1|1|1|0|0|1|1|1|0|1|1|0|0|0|0|0|0|0|0|0|1|0|1|0|0|0|0|0|1|1|0|0|0|1|1|1|1,6.333083333333334,main_trials,10
11646,,10546,20,0.7,all|most|many|some|few|none,all|most|many|some|few|none,right|wrong,12,,high,placeholder,Graduated High School,1580336114502,placeholder,82,female,English,5c761e74b80b460016bd0bd9,Describe these results of <strong>Green Valley</strong> so as to make it appear as if there is a <strong>high</strong> success rate without lying.,most|most|right,5,In this exam,of the students got,of the questions,.,Wed Jan 29 2020 17:08:54 GMT-0500 (Eastern Standard Time),1580335734517,1|1|1|1|0|0|0|1|0|0|0|1|0|0|0|0|0|0|0|0|0|1|0|0|0|1|0|0|0|0|0|1|0|0|0|0|1|0|1|0|0|0|0|1|0|0|0|1|0|0|0|0|0|0|0|1|1|1|1|0,6.333083333333334,main_trials,11
11646,,10504,20,0.6,all|most|many|some|few|none,all|most|many|some|few|none,right|wrong,12,,high,placeholder,Graduated High School,1580336114502,placeholder,82,female,English,5c761e74b80b460016bd0bd9,Describe these results of <strong>Green Valley</strong> so as to make it appear as if there is a <strong>high</strong> success rate without lying.,most|most|right,5,In this exam,of the students got,of the questions,.,Wed Jan 29 2020 17:08:54 GMT-0500 (Eastern Standard Time),1580335734517,0|0|0|0|1|0|1|0|0|1|0|0|1|1|1|0|1|0|0|0|0|1|0|0|1|0|0|1|1|0|1|0|0|1|0|0|1|0|0|0|0|0|0|0|1|1|1|1|1|0|0|0|1|0|0|1|0|0|1|1,6.333083333333334,main_trials,12
11646,,16887,20,0.4,all|most|many|some|few|none,all|most|many|some|few|none,right|wrong,12,,high,placeholder,Graduated High School,1580336114502,placeholder,82,female,English,5c761e74b80b460016bd0bd9,Describe these results of <strong>Green Valley</strong> so as to make it appear as if there is a <strong>high</strong> success rate without lying.,many|most|right,5,In this exam,of the students got,of the questions,.,Wed Jan 29 2020 17:08:54 GMT-0500 (Eastern Standard Time),1580335734517,0|0|1|0|0|1|0|0|0|1|0|1|1|0|0|0|0|0|1|1|1|1|0|0|0|1|0|1|1|1|1|0|0|1|1|0|0|1|1|1|1|1|1|0|1|1|1|1|1|1|1|0|1|0|0|1|1|1|0|1,6.333083333333334,main_trials,13
11646,,15860,20,0.8,all|most|many|some|few|none,all|most|many|some|few|none,right|wrong,12,,high,placeholder,Graduated High School,1580336114502,placeholder,82,female,English,5c761e74b80b460016bd0bd9,Describe these results of <strong>Green Valley</strong> so as to make it appear as if there is a <strong>high</strong> success rate without lying.,all|most|right,5,In this exam,of the students got,of the questions,.,Wed Jan 29 2020 17:08:54 GMT-0500 (Eastern Standard Time),1580335734517,0|0|1|0|0|0|0|0|0|0|0|0|0|0|0|0|0|0|0|0|0|1|0|0|1|0|0|0|0|0|0|0|0|1|0|0|0|0|1|1|1|0|0|1|0|1|0|0|0|0|0|0|0|0|0|0|0|0|0|0,6.333083333333334,main_trials,14
11654,,32863,21,0.2,all|most|many|some|few|none,all|most|many|some|few|none,right|wrong,12,Thanks for the mini test! I enjoyed it ! Thanks have a great day!,high,NA,Graduated High School,1580337367074,NA,82,male,,5d12438803b9c6001797854e,Describe these results of <strong>Green Valley</strong> so as to make it appear as if there is a <strong>high</strong> success rate without lying.,few|some|right,5,In this exam,of the students got,of the questions,.,Wed Jan 29 2020 16:12:06 GMT-0600 (Central Standard Time),1580335926711,1|1|1|1|1|1|1|1|1|1|1|1|1|1|1|1|1|1|1|1|0|0|1|1|1|1|1|1|1|1|0|0|1|1|1|0|0|1|1|1|1|1|1|1|1|1|1|1|1|1|1|0|1|1|1|1|0|1|1|1,24.00605,training_trials,1
11654,,21438,21,0.9,all|most|many|some|few|none,all|most|many|some|few|none,right|wrong,12,Thanks for the mini test! I enjoyed it ! Thanks have a great day!,high,NA,Graduated High School,1580337367074,NA,82,male,,5d12438803b9c6001797854e,Describe these results of <strong>Green Valley</strong> so as to make it appear as if there is a <strong>high</strong> success rate without lying.,most|few|wrong,5,In this exam,of the students got,of the questions,.,Wed Jan 29 2020 16:12:06 GMT-0600 (Central Standard Time),1580335926711,0|0|0|0|0|0|0|0|0|1|1|0|0|0|0|0|0|0|0|0|0|1|0|0|0|0|0|0|0|0|0|0|1|0|0|0|0|0|1|1|0|0|0|0|0|0|0|0|0|1|0|0|0|0|1|0|0|0|0|0,24.00605,training_trials,2
11654,,13919,21,0.5,all|most|many|some|few|none,all|most|many|some|few|none,right|wrong,12,Thanks for the mini test! I enjoyed it ! Thanks have a great day!,low,NA,Graduated High School,1580337367074,NA,82,male,,5d12438803b9c6001797854e,Describe these results of <strong>Riverside</strong> so as to make it appear as if there is a <strong>low</strong> success rate without lying.,all|most|right,5,In this exam,of the students got,of the questions,.,Wed Jan 29 2020 16:12:06 GMT-0600 (Central Standard Time),1580335926711,1|1|1|1|1|0|1|0|1|1|1|0|0|0|0|0|0|0|1|0|0|1|0|0|1|0|0|1|0|0|1|0|0|0|0|1|0|0|0|0|1|0|0|1|1|0|1|0|0|0|1|1|1|1|1|0|1|0|0|1,24.00605,training_trials,3
11654,,18335,21,0.5,all|most|many|some|few|none,all|most|many|some|few|none,right|wrong,12,Thanks for the mini test! I enjoyed it ! Thanks have a great day!,low,placeholder,Graduated High School,1580337367074,placeholder,82,male,,5d12438803b9c6001797854e,Describe these results of <strong>Riverside</strong> so as to make it appear as if there is a <strong>low</strong> success rate without lying.,most|some|wrong,5,In this exam,of the students got,of the questions,.,Wed Jan 29 2020 16:12:06 GMT-0600 (Central Standard Time),1580335926711,0|0|1|1|1|1|0|1|1|0|0|0|0|1|1|1|1|0|0|1|1|1|0|1|0|1|1|1|1|1|1|0|1|1|1|0|1|1|1|1|1|0|1|0|0|1|0|1|1|0|1|0|1|0|0|0|0|0|1|0,24.00605,main_trials,1
11654,,19039,21,0.2,all|most|many|some|few|none,all|most|many|some|few|none,right|wrong,12,Thanks for the mini test! I enjoyed it ! Thanks have a great day!,low,placeholder,Graduated High School,1580337367074,placeholder,82,male,,5d12438803b9c6001797854e,Describe these results of <strong>Riverside</strong> so as to make it appear as if there is a <strong>low</strong> success rate without lying.,all|some|right,5,In this exam,of the students got,of the questions,.,Wed Jan 29 2020 16:12:06 GMT-0600 (Central Standard Time),1580335926711,1|1|0|1|1|1|1|1|1|1|1|1|1|1|1|1|1|1|1|1|1|1|1|1|1|1|1|1|0|0|0|1|0|1|1|1|1|1|1|0|1|1|1|1|1|1|1|1|1|1|1|1|1|0|1|1|0|1|1|1,24.00605,main_trials,2
11654,,11817,21,0.4,all|most|many|some|few|none,all|most|many|some|few|none,right|wrong,12,Thanks for the mini test! I enjoyed it ! Thanks have a great day!,low,placeholder,Graduated High School,1580337367074,placeholder,82,male,,5d12438803b9c6001797854e,Describe these results of <strong>Riverside</strong> so as to make it appear as if there is a <strong>low</strong> success rate without lying.,all|most|right,5,In this exam,of the students got,of the questions,.,Wed Jan 29 2020 16:12:06 GMT-0600 (Central Standard Time),1580335926711,0|0|1|0|1|1|1|1|0|1|1|1|1|1|0|0|0|0|0|1|1|0|0|0|1|0|1|1|0|1|0|1|1|0|0|0|1|1|0|1|0|1|1|1|0|1|1|1|1|1|1|0|1|0|1|0|1|1|0|1,24.00605,main_trials,3
11654,,4813,21,0.7,all|most|many|some|few|none,all|most|many|some|few|none,right|wrong,12,Thanks for the mini test! I enjoyed it ! Thanks have a great day!,low,placeholder,Graduated High School,1580337367074,placeholder,82,male,,5d12438803b9c6001797854e,Describe these results of <strong>Riverside</strong> so as to make it appear as if there is a <strong>low</strong> success rate without lying.,most|most|right,5,In this exam,of the students got,of the questions,.,Wed Jan 29 2020 16:12:06 GMT-0600 (Central Standard Time),1580335926711,0|0|0|0|0|0|0|0|0|1|0|1|1|0|0|0|0|0|1|0|1|1|1|0|0|0|0|1|1|0|1|0|0|0|0|1|0|0|1|0|1|0|0|0|0|1|0|0|1|1|0|1|0|0|0|1|0|1|0|1,24.00605,main_trials,4
11654,,9718,21,0.8,all|most|many|some|few|none,all|most|many|some|few|none,right|wrong,12,Thanks for the mini test! I enjoyed it ! Thanks have a great day!,low,placeholder,Graduated High School,1580337367074,placeholder,82,male,,5d12438803b9c6001797854e,Describe these results of <strong>Riverside</strong> so as to make it appear as if there is a <strong>low</strong> success rate without lying.,most|most|right,5,In this exam,of the students got,of the questions,.,Wed Jan 29 2020 16:12:06 GMT-0600 (Central Standard Time),1580335926711,0|0|1|0|0|1|0|0|0|0|0|0|0|0|1|0|1|0|0|0|0|1|0|0|0|0|0|0|0|0|0|0|0|0|1|1|0|0|0|0|1|1|0|0|0|1|1|0|0|0|0|1|1|0|0|0|1|1|1|0,24.00605,main_trials,5
11654,,10934,21,0.2,all|most|many|some|few|none,all|most|many|some|few|none,right|wrong,12,Thanks for the mini test! I enjoyed it ! Thanks have a great day!,high,placeholder,Graduated High School,1580337367074,placeholder,82,male,,5d12438803b9c6001797854e,Describe these results of <strong>Green Valley</strong> so as to make it appear as if there is a <strong>high</strong> success rate without lying.,none|some|right,5,In this exam,of the students got,of the questions,.,Wed Jan 29 2020 16:12:06 GMT-0600 (Central Standard Time),1580335926711,0|1|1|1|0|1|1|1|1|0|0|1|1|1|1|1|1|1|0|1|1|0|1|1|1|1|1|1|1|1|1|1|0|0|1|1|1|0|1|1|1|1|1|1|1|1|1|1|0|1|1|1|1|1|1|1|1|1|0|1,24.00605,main_trials,6
11654,,51149,21,0.5,all|most|many|some|few|none,all|most|many|some|few|none,right|wrong,12,Thanks for the mini test! I enjoyed it ! Thanks have a great day!,high,placeholder,Graduated High School,1580337367074,placeholder,82,male,,5d12438803b9c6001797854e,Describe these results of <strong>Green Valley</strong> so as to make it appear as if there is a <strong>high</strong> success rate without lying.,many|most|right,5,In this exam,of the students got,of the questions,.,Wed Jan 29 2020 16:12:06 GMT-0600 (Central Standard Time),1580335926711,1|1|1|1|0|1|0|0|0|1|1|1|1|1|0|0|1|1|1|0|0|1|1|1|1|1|1|1|0|0|1|1|1|0|0|0|0|0|1|1|0|0|0|0|0|1|1|1|1|0|0|0|1|1|1|0|1|0|0|0,24.00605,main_trials,7
11654,,10575,21,0.7,all|most|many|some|few|none,all|most|many|some|few|none,right|wrong,12,Thanks for the mini test! I enjoyed it ! Thanks have a great day!,high,placeholder,Graduated High School,1580337367074,placeholder,82,male,,5d12438803b9c6001797854e,Describe these results of <strong>Green Valley</strong> so as to make it appear as if there is a <strong>high</strong> success rate without lying.,most|few|wrong,5,In this exam,of the students got,of the questions,.,Wed Jan 29 2020 16:12:06 GMT-0600 (Central Standard Time),1580335926711,0|0|0|0|0|0|1|0|0|0|0|0|0|0|0|0|1|1|1|1|0|1|0|1|1|0|0|0|0|0|0|0|0|0|0|1|0|1|1|0|0|1|0|0|0|0|0|0|0|0|0|0|1|0|0|0|0|0|0|0,24.00605,main_trials,8
11654,,30098,21,0.3,all|most|many|some|few|none,all|most|many|some|few|none,right|wrong,12,Thanks for the mini test! I enjoyed it ! Thanks have a great day!,high,placeholder,Graduated High School,1580337367074,placeholder,82,male,,5d12438803b9c6001797854e,Describe these results of <strong>Green Valley</strong> so as to make it appear as if there is a <strong>high</strong> success rate without lying.,some|most|right,5,In this exam,of the students got,of the questions,.,Wed Jan 29 2020 16:12:06 GMT-0600 (Central Standard Time),1580335926711,0|0|0|1|0|1|1|1|1|1|0|1|0|1|1|1|1|1|0|0|1|0|1|0|1|1|1|1|1|1|1|0|1|0|1|1|0|0|0|1|1|1|1|1|0|1|1|1|1|1|1|1|1|1|1|1|1|1|1|1,24.00605,main_trials,9
11654,,81071,21,0.4,all|most|many|some|few|none,all|most|many|some|few|none,right|wrong,12,Thanks for the mini test! I enjoyed it ! Thanks have a great day!,high,placeholder,Graduated High School,1580337367074,placeholder,82,male,,5d12438803b9c6001797854e,Describe these results of <strong>Green Valley</strong> so as to make it appear as if there is a <strong>high</strong> success rate without lying.,few|some|right,5,In this exam,of the students got,of the questions,.,Wed Jan 29 2020 16:12:06 GMT-0600 (Central Standard Time),1580335926711,1|1|0|1|0|0|0|1|1|0|1|1|1|1|1|1|0|0|1|1|1|1|0|1|1|1|1|1|0|1|1|1|0|1|1|0|0|1|1|0|0|0|0|0|0|0|1|1|1|0|1|1|0|0|0|1|1|0|1|1,24.00605,main_trials,10
11654,,8030,21,0.3,all|most|many|some|few|none,all|most|many|some|few|none,right|wrong,12,Thanks for the mini test! I enjoyed it ! Thanks have a great day!,low,placeholder,Graduated High School,1580337367074,placeholder,82,male,,5d12438803b9c6001797854e,Describe these results of <strong>Riverside</strong> so as to make it appear as if there is a <strong>low</strong> success rate without lying.,all|some|wrong,5,In this exam,of the students got,of the questions,.,Wed Jan 29 2020 16:12:06 GMT-0600 (Central Standard Time),1580335926711,1|1|1|1|1|0|1|1|0|1|0|1|0|0|1|1|1|0|0|1|0|1|1|1|1|1|1|1|1|1|0|1|1|0|1|0|1|1|1|0|1|1|1|0|1|1|1|1|0|1|1|1|1|0|1|1|0|1|1|1,24.00605,main_trials,11
11654,,6414,21,0.8,all|most|many|some|few|none,all|most|many|some|few|none,right|wrong,12,Thanks for the mini test! I enjoyed it ! Thanks have a great day!,high,placeholder,Graduated High School,1580337367074,placeholder,82,male,,5d12438803b9c6001797854e,Describe these results of <strong>Green Valley</strong> so as to make it appear as if there is a <strong>high</strong> success rate without lying.,all|most|right,5,In this exam,of the students got,of the questions,.,Wed Jan 29 2020 16:12:06 GMT-0600 (Central Standard Time),1580335926711,0|0|0|0|0|0|0|0|0|0|0|1|1|0|0|0|0|0|0|0|0|0|0|0|0|1|0|0|0|0|0|0|0|0|0|0|1|0|0|0|0|0|0|1|0|1|0|0|0|1|0|1|0|0|0|0|1|0|0|0,24.00605,main_trials,12
11654,,415445,21,0.6,all|most|many|some|few|none,all|most|many|some|few|none,right|wrong,12,Thanks for the mini test! I enjoyed it ! Thanks have a great day!,high,placeholder,Graduated High School,1580337367074,placeholder,82,male,,5d12438803b9c6001797854e,Describe these results of <strong>Green Valley</strong> so as to make it appear as if there is a <strong>high</strong> success rate without lying.,most|many|right,5,In this exam,of the students got,of the questions,.,Wed Jan 29 2020 16:12:06 GMT-0600 (Central Standard Time),1580335926711,0|0|1|0|1|0|1|0|1|0|0|0|0|0|0|1|0|1|0|0|0|0|0|0|0|1|0|0|0|0|0|1|0|0|1|0|0|0|1|0|0|0|0|0|1|1|0|0|1|0|1|0|0|1|0|1|0|0|0|0,24.00605,main_trials,13
11654,,3379,21,0.6,all|most|many|some|few|none,all|most|many|some|few|none,right|wrong,12,Thanks for the mini test! I enjoyed it ! Thanks have a great day!,low,placeholder,Graduated High School,1580337367074,placeholder,82,male,,5d12438803b9c6001797854e,Describe these results of <strong>Riverside</strong> so as to make it appear as if there is a <strong>low</strong> success rate without lying.,all|most|right,5,In this exam,of the students got,of the questions,.,Wed Jan 29 2020 16:12:06 GMT-0600 (Central Standard Time),1580335926711,0|1|0|0|1|0|0|0|1|0|1|1|0|0|0|0|0|0|0|0|1|0|0|0|0|1|0|0|1|1|0|0|1|0|1|0|0|1|0|1|0|0|1|0|0|1|1|1|0|0|1|0|0|0|0|0|1|1|1|1,24.00605,main_trials,14
11651,,87467,36,0.2,all|most|many|some|few|none,all|most|many|some|few|none,right|wrong,12,"Very interested study, it is interesting see how results can be manipulated to present them in a favourable or unfavourable light.",high,NA,Higher Degree,1580337139884,NA,82,female,English,5c6170988534ec00013bcb40,Describe these results of <strong>Green Valley</strong> so as to make it appear as if there is a <strong>high</strong> success rate without lying.,all|many|right,5,In this exam,of the students got,of the questions,.,Wed Jan 29 2020 22:19:53 GMT+0000 (GMT),1580336393189,1|1|1|1|1|1|1|0|1|1|1|1|1|0|1|1|0|1|1|1|0|1|1|0|1|0|1|0|1|0|1|1|1|0|1|1|1|1|1|0|1|1|1|1|1|0|1|0|1|1|0|1|1|0|1|1|1|1|1|1,12.444916666666666,training_trials,1
11651,,31760,36,0.5,all|most|many|some|few|none,all|most|many|some|few|none,right|wrong,12,"Very interested study, it is interesting see how results can be manipulated to present them in a favourable or unfavourable light.",low,NA,Higher Degree,1580337139884,NA,82,female,English,5c6170988534ec00013bcb40,Describe these results of <strong>Riverside</strong> so as to make it appear as if there is a <strong>low</strong> success rate without lying.,all|some|wrong,5,In this exam,of the students got,of the questions,.,Wed Jan 29 2020 22:19:53 GMT+0000 (GMT),1580336393189,1|1|1|1|1|1|1|1|1|0|1|1|0|0|0|0|0|1|1|1|1|1|1|0|1|1|0|0|0|0|0|1|0|1|1|1|1|0|0|0|0|1|1|0|1|1|1|1|0|1|1|0|1|0|0|1|1|1|1|1,12.444916666666666,training_trials,2
11651,,25683,36,0.9,all|most|many|some|few|none,all|most|many|some|few|none,right|wrong,12,"Very interested study, it is interesting see how results can be manipulated to present them in a favourable or unfavourable light.",high,NA,Higher Degree,1580337139884,NA,82,female,English,5c6170988534ec00013bcb40,Describe these results of <strong>Green Valley</strong> so as to make it appear as if there is a <strong>high</strong> success rate without lying.,all|most|right,5,In this exam,of the students got,of the questions,.,Wed Jan 29 2020 22:19:53 GMT+0000 (GMT),1580336393189,0|0|0|0|0|0|0|0|0|0|0|0|0|0|0|0|0|0|0|0|0|0|0|0|0|0|1|0|1|0|0|0|0|0|0|0|0|0|0|0|0|0|0|0|0|0|0|0|0|0|0|0|0|0|0|0|0|0|0|0,12.444916666666666,training_trials,3
11651,,36728,36,0.5,all|most|many|some|few|none,all|most|many|some|few|none,right|wrong,12,"Very interested study, it is interesting see how results can be manipulated to present them in a favourable or unfavourable light.",low,placeholder,Higher Degree,1580337139884,placeholder,82,female,English,5c6170988534ec00013bcb40,Describe these results of <strong>Riverside</strong> so as to make it appear as if there is a <strong>low</strong> success rate without lying.,all|many|wrong,5,In this exam,of the students got,of the questions,.,Wed Jan 29 2020 22:19:53 GMT+0000 (GMT),1580336393189,0|0|1|0|1|0|0|1|1|0|0|0|0|1|0|1|1|1|0|1|0|1|1|1|1|0|0|1|0|0|1|1|1|1|0|1|0|1|0|1|0|1|1|0|0|1|0|0|0|1|1|0|1|0|1|0|1|1|0|1,12.444916666666666,main_trials,1
11651,,25675,36,0.6,all|most|many|some|few|none,all|most|many|some|few|none,right|wrong,12,"Very interested study, it is interesting see how results can be manipulated to present them in a favourable or unfavourable light.",low,placeholder,Higher Degree,1580337139884,placeholder,82,female,English,5c6170988534ec00013bcb40,Describe these results of <strong>Riverside</strong> so as to make it appear as if there is a <strong>low</strong> success rate without lying.,all|some|wrong,5,In this exam,of the students got,of the questions,.,Wed Jan 29 2020 22:19:53 GMT+0000 (GMT),1580336393189,1|0|1|1|0|0|1|0|1|0|1|1|1|0|0|1|1|1|0|0|1|1|0|0|1|0|1|0|1|1|1|1|0|1|0|1|1|1|0|0|0|1|1|1|0|0|1|0|0|0|0|1|1|1|1|1|0|0|1|1,12.444916666666666,main_trials,2
11651,,18237,36,0.2,all|most|many|some|few|none,all|most|many|some|few|none,right|wrong,12,"Very interested study, it is interesting see how results can be manipulated to present them in a favourable or unfavourable light.",low,placeholder,Higher Degree,1580337139884,placeholder,82,female,English,5c6170988534ec00013bcb40,Describe these results of <strong>Riverside</strong> so as to make it appear as if there is a <strong>low</strong> success rate without lying.,all|most|wrong,5,In this exam,of the students got,of the questions,.,Wed Jan 29 2020 22:19:53 GMT+0000 (GMT),1580336393189,1|1|1|0|1|0|1|1|1|1|0|1|1|0|1|0|1|1|0|1|0|1|1|1|1|1|0|1|1|1|1|1|1|1|0|1|1|1|1|1|1|1|1|1|1|1|1|1|1|1|1|1|1|0|0|1|1|1|1|0,12.444916666666666,main_trials,3
11651,,36456,36,0.7,all|most|many|some|few|none,all|most|many|some|few|none,right|wrong,12,"Very interested study, it is interesting see how results can be manipulated to present them in a favourable or unfavourable light.",low,placeholder,Higher Degree,1580337139884,placeholder,82,female,English,5c6170988534ec00013bcb40,Describe these results of <strong>Riverside</strong> so as to make it appear as if there is a <strong>low</strong> success rate without lying.,all|some|wrong,5,In this exam,of the students got,of the questions,.,Wed Jan 29 2020 22:19:53 GMT+0000 (GMT),1580336393189,0|1|1|1|0|0|0|0|0|0|0|0|0|0|1|1|0|1|1|0|0|0|0|1|0|0|0|0|0|0|0|0|1|0|0|1|0|1|0|0|0|0|0|0|0|0|0|1|0|1|1|0|1|0|0|0|1|1|0|0,12.444916666666666,main_trials,4
11651,,29787,36,0.3,all|most|many|some|few|none,all|most|many|some|few|none,right|wrong,12,"Very interested study, it is interesting see how results can be manipulated to present them in a favourable or unfavourable light.",high,placeholder,Higher Degree,1580337139884,placeholder,82,female,English,5c6170988534ec00013bcb40,Describe these results of <strong>Green Valley</strong> so as to make it appear as if there is a <strong>high</strong> success rate without lying.,all|some|right,5,In this exam,of the students got,of the questions,.,Wed Jan 29 2020 22:19:53 GMT+0000 (GMT),1580336393189,1|1|1|0|1|1|0|1|1|1|1|1|1|0|1|1|0|1|1|1|1|1|1|1|0|1|1|0|0|1|1|1|0|1|1|0|1|1|1|1|1|1|0|1|1|1|1|0|1|1|1|0|0|0|1|1|1|1|1|1,12.444916666666666,main_trials,5
11651,,21975,36,0.4,all|most|many|some|few|none,all|most|many|some|few|none,right|wrong,12,"Very interested study, it is interesting see how results can be manipulated to present them in a favourable or unfavourable light.",low,placeholder,Higher Degree,1580337139884,placeholder,82,female,English,5c6170988534ec00013bcb40,Describe these results of <strong>Riverside</strong> so as to make it appear as if there is a <strong>low</strong> success rate without lying.,all|some|wrong,5,In this exam,of the students got,of the questions,.,Wed Jan 29 2020 22:19:53 GMT+0000 (GMT),1580336393189,0|1|0|0|0|0|0|0|1|1|1|1|0|1|0|1|0|1|1|1|0|1|1|1|1|0|0|0|1|0|0|0|0|1|1|1|0|1|0|0|0|1|1|1|1|1|0|1|1|1|0|1|1|0|0|1|0|0|1|1,12.444916666666666,main_trials,6
11651,,27170,36,0.4,all|most|many|some|few|none,all|most|many|some|few|none,right|wrong,12,"Very interested study, it is interesting see how results can be manipulated to present them in a favourable or unfavourable light.",high,placeholder,Higher Degree,1580337139884,placeholder,82,female,English,5c6170988534ec00013bcb40,Describe these results of <strong>Green Valley</strong> so as to make it appear as if there is a <strong>high</strong> success rate without lying.,all|many|right,5,In this exam,of the students got,of the questions,.,Wed Jan 29 2020 22:19:53 GMT+0000 (GMT),1580336393189,1|0|0|1|1|1|0|0|1|1|1|0|1|1|0|1|1|0|1|0|0|0|0|0|0|1|1|1|1|1|1|1|0|1|1|1|1|1|0|0|1|0|1|1|1|0|1|1|1|0|1|1|1|1|0|1|1|1|0|1,12.444916666666666,main_trials,7
11651,,34488,36,0.8,all|most|many|some|few|none,all|most|many|some|few|none,right|wrong,12,"Very interested study, it is interesting see how results can be manipulated to present them in a favourable or unfavourable light.",low,placeholder,Higher Degree,1580337139884,placeholder,82,female,English,5c6170988534ec00013bcb40,Describe these results of <strong>Riverside</strong> so as to make it appear as if there is a <strong>low</strong> success rate without lying.,all|some|wrong,5,In this exam,of the students got,of the questions,.,Wed Jan 29 2020 22:19:53 GMT+0000 (GMT),1580336393189,0|0|0|0|0|0|0|0|1|0|0|0|0|0|1|0|0|0|0|0|1|0|0|0|0|0|0|1|0|0|0|1|0|1|0|0|1|0|1|0|0|0|0|0|0|0|1|0|0|0|0|0|0|1|0|1|0|1|1|0,12.444916666666666,main_trials,8
11651,,17229,36,0.8,all|most|many|some|few|none,all|most|many|some|few|none,right|wrong,12,"Very interested study, it is interesting see how results can be manipulated to present them in a favourable or unfavourable light.",high,placeholder,Higher Degree,1580337139884,placeholder,82,female,English,5c6170988534ec00013bcb40,Describe these results of <strong>Green Valley</strong> so as to make it appear as if there is a <strong>high</strong> success rate without lying.,all|most|right,5,In this exam,of the students got,of the questions,.,Wed Jan 29 2020 22:19:53 GMT+0000 (GMT),1580336393189,0|1|0|1|0|0|0|1|0|0|0|0|0|0|0|0|1|0|0|0|0|0|0|0|0|0|0|0|0|0|1|0|0|0|0|0|0|0|0|1|0|0|0|0|0|0|1|0|1|0|0|0|1|0|0|1|0|0|0|0,12.444916666666666,main_trials,9
11651,,25271,36,0.7,all|most|many|some|few|none,all|most|many|some|few|none,right|wrong,12,"Very interested study, it is interesting see how results can be manipulated to present them in a favourable or unfavourable light.",high,placeholder,Higher Degree,1580337139884,placeholder,82,female,English,5c6170988534ec00013bcb40,Describe these results of <strong>Green Valley</strong> so as to make it appear as if there is a <strong>high</strong> success rate without lying.,many|many|right,5,In this exam,of the students got,of the questions,.,Wed Jan 29 2020 22:19:53 GMT+0000 (GMT),1580336393189,0|0|1|1|1|1|0|0|1|0|0|0|1|0|1|0|1|1|1|1|1|0|1|1|1|0|0|0|0|1|0|1|0|0|0|0|0|1|0|0|0|0|0|0|0|0|1|0|0|0|1|0|0|0|0|1|0|0|0|1,12.444916666666666,main_trials,10
11651,,22766,36,0.5,all|most|many|some|few|none,all|most|many|some|few|none,right|wrong,12,"Very interested study, it is interesting see how results can be manipulated to present them in a favourable or unfavourable light.",high,placeholder,Higher Degree,1580337139884,placeholder,82,female,English,5c6170988534ec00013bcb40,Describe these results of <strong>Green Valley</strong> so as to make it appear as if there is a <strong>high</strong> success rate without lying.,most|many|right,5,In this exam,of the students got,of the questions,.,Wed Jan 29 2020 22:19:53 GMT+0000 (GMT),1580336393189,0|0|0|0|1|1|1|0|0|1|0|0|0|0|0|0|0|0|0|1|1|0|1|1|1|0|1|1|1|1|1|0|0|0|1|1|0|1|0|0|0|1|1|0|1|1|1|1|1|1|0|0|0|0|1|0|0|0|0|1,12.444916666666666,main_trials,11
11651,,16584,36,0.6,all|most|many|some|few|none,all|most|many|some|few|none,right|wrong,12,"Very interested study, it is interesting see how results can be manipulated to present them in a favourable or unfavourable light.",high,placeholder,Higher Degree,1580337139884,placeholder,82,female,English,5c6170988534ec00013bcb40,Describe these results of <strong>Green Valley</strong> so as to make it appear as if there is a <strong>high</strong> success rate without lying.,all|many|right,5,In this exam,of the students got,of the questions,.,Wed Jan 29 2020 22:19:53 GMT+0000 (GMT),1580336393189,1|0|1|0|1|0|0|1|0|0|1|0|0|1|1|0|0|1|0|0|0|0|1|0|1|0|0|0|0|0|0|0|1|0|0|1|0|0|1|0|0|1|1|0|0|0|1|0|0|0|0|1|0|0|1|0|1|0|0|1,12.444916666666666,main_trials,12
11651,,20439,36,0.3,all|most|many|some|few|none,all|most|many|some|few|none,right|wrong,12,"Very interested study, it is interesting see how results can be manipulated to present them in a favourable or unfavourable light.",low,placeholder,Higher Degree,1580337139884,placeholder,82,female,English,5c6170988534ec00013bcb40,Describe these results of <strong>Riverside</strong> so as to make it appear as if there is a <strong>low</strong> success rate without lying.,most|many|wrong,5,In this exam,of the students got,of the questions,.,Wed Jan 29 2020 22:19:53 GMT+0000 (GMT),1580336393189,0|1|1|1|1|1|1|1|1|1|1|0|1|1|1|0|1|1|1|0|0|0|0|0|1|0|1|1|1|1|1|0|0|1|1|1|0|1|1|1|1|0|1|1|1|0|1|0|0|0|1|1|1|1|1|1|1|1|1|0,12.444916666666666,main_trials,13
11651,,29440,36,0.2,all|most|many|some|few|none,all|most|many|some|few|none,right|wrong,12,"Very interested study, it is interesting see how results can be manipulated to present them in a favourable or unfavourable light.",high,placeholder,Higher Degree,1580337139884,placeholder,82,female,English,5c6170988534ec00013bcb40,Describe these results of <strong>Green Valley</strong> so as to make it appear as if there is a <strong>high</strong> success rate without lying.,all|some|right,5,In this exam,of the students got,of the questions,.,Wed Jan 29 2020 22:19:53 GMT+0000 (GMT),1580336393189,1|1|1|1|1|1|1|1|1|1|0|1|0|0|1|1|1|1|1|1|1|0|1|1|0|1|0|1|1|1|1|1|1|0|1|1|1|1|1|1|1|1|1|0|0|0|0|1|1|1|1|1|1|1|1|1|0|1|0|1,12.444916666666666,main_trials,14
11650,,117663,30,0.9,all|most|many|some|few|none,all|most|many|some|few|none,right|wrong,12,,high,NA,Graduated College,1580336652301,NA,82,female,English,5d31dc6e42678e001a0bdedd,Describe these results of <strong>Green Valley</strong> so as to make it appear as if there is a <strong>high</strong> success rate without lying.,most|most|right,5,In this exam,of the students got,of the questions,.,Wed Jan 29 2020 22:11:22 GMT+0000 (Greenwich Mean Time),1580335882689,0|0|0|0|0|0|0|0|0|0|0|0|0|0|1|0|0|0|0|0|1|0|0|0|0|1|0|0|0|0|0|0|1|0|0|1|0|0|0|0|0|0|1|0|0|0|0|0|1|0|0|0|1|0|0|0|0|0|0|0,12.826866666666668,training_trials,1
11650,,25371,30,0.5,all|most|many|some|few|none,all|most|many|some|few|none,right|wrong,12,,low,NA,Graduated College,1580336652301,NA,82,female,English,5d31dc6e42678e001a0bdedd,Describe these results of <strong>Riverside</strong> so as to make it appear as if there is a <strong>low</strong> success rate without lying.,most|most|wrong,5,In this exam,of the students got,of the questions,.,Wed Jan 29 2020 22:11:22 GMT+0000 (Greenwich Mean Time),1580335882689,0|0|1|1|1|0|0|0|1|1|0|0|1|1|1|0|1|1|0|1|0|0|1|0|0|0|1|1|1|0|0|1|1|0|0|0|0|0|0|0|1|1|0|0|0|1|1|0|1|0|0|0|1|1|1|1|0|1|1|1,12.826866666666668,training_trials,2
11650,,35523,30,0.2,all|most|many|some|few|none,all|most|many|some|few|none,right|wrong,12,,high,NA,Graduated College,1580336652301,NA,82,female,English,5d31dc6e42678e001a0bdedd,Describe these results of <strong>Green Valley</strong> so as to make it appear as if there is a <strong>high</strong> success rate without lying.,some|some|wrong,5,In this exam,of the students got,of the questions,.,Wed Jan 29 2020 22:11:22 GMT+0000 (Greenwich Mean Time),1580335882689,1|1|1|1|1|1|1|1|1|1|1|1|0|1|1|1|1|1|1|0|1|1|1|0|1|1|1|1|1|1|0|1|1|1|1|1|1|1|1|1|1|1|1|1|1|1|1|0|0|0|1|1|1|1|1|0|1|1|1|1,12.826866666666668,training_trials,3
11650,,51536,30,0.5,all|most|many|some|few|none,all|most|many|some|few|none,right|wrong,12,,high,placeholder,Graduated College,1580336652301,placeholder,82,female,English,5d31dc6e42678e001a0bdedd,Describe these results of <strong>Green Valley</strong> so as to make it appear as if there is a <strong>high</strong> success rate without lying.,most|many|right,5,In this exam,of the students got,of the questions,.,Wed Jan 29 2020 22:11:22 GMT+0000 (Greenwich Mean Time),1580335882689,0|1|1|1|0|0|1|1|0|1|1|1|0|1|0|0|1|0|1|1|1|0|0|0|1|1|0|1|0|0|1|1|0|1|1|0|0|1|0|1|0|0|1|0|1|1|1|1|0|1|1|0|0|1|0|0|0|0|0|0,12.826866666666668,main_trials,1
11650,,31611,30,0.7,all|most|many|some|few|none,all|most|many|some|few|none,right|wrong,12,,high,placeholder,Graduated College,1580336652301,placeholder,82,female,English,5d31dc6e42678e001a0bdedd,Describe these results of <strong>Green Valley</strong> so as to make it appear as if there is a <strong>high</strong> success rate without lying.,few|few|wrong,5,In this exam,of the students got,of the questions,.,Wed Jan 29 2020 22:11:22 GMT+0000 (Greenwich Mean Time),1580335882689,0|1|0|0|0|1|0|1|0|0|0|1|0|0|0|0|0|0|0|0|0|0|0|0|1|0|0|0|0|1|0|0|0|1|1|0|0|0|1|0|0|1|0|0|0|1|1|0|0|0|0|0|0|1|0|0|0|1|0|0,12.826866666666668,main_trials,2
11650,,15561,30,0.3,all|most|many|some|few|none,all|most|many|some|few|none,right|wrong,12,,high,placeholder,Graduated College,1580336652301,placeholder,82,female,English,5d31dc6e42678e001a0bdedd,Describe these results of <strong>Green Valley</strong> so as to make it appear as if there is a <strong>high</strong> success rate without lying.,some|some|,5,In this exam,of the students got,of the questions,.,Wed Jan 29 2020 22:11:22 GMT+0000 (Greenwich Mean Time),1580335882689,1|1|0|0|1|0|1|0|0|1|0|1|1|1|1|1|0|1|1|1|0|0|1|1|1|0|1|1|1|0|1|1|1|1|1|1|1|0|1|1|0|1|1|1|1|1|0|1|1|1|1|1|0|1|0|0|0|0|1|0,12.826866666666668,main_trials,3
11650,,24810,30,0.6,all|most|many|some|few|none,all|most|many|some|few|none,right|wrong,12,,low,placeholder,Graduated College,1580336652301,placeholder,82,female,English,5d31dc6e42678e001a0bdedd,Describe these results of <strong>Riverside</strong> so as to make it appear as if there is a <strong>low</strong> success rate without lying.,many|most|wrong,5,In this exam,of the students got,of the questions,.,Wed Jan 29 2020 22:11:22 GMT+0000 (Greenwich Mean Time),1580335882689,0|0|0|1|1|0|0|1|1|0|0|1|0|1|0|0|0|1|0|1|0|1|0|0|1|0|1|1|1|1|0|0|1|1|1|0|0|0|1|1|1|0|0|0|1|0|0|0|1|0|0|0|1|0|1|0|1|0|0|0,12.826866666666668,main_trials,4
11650,,17657,30,0.7,all|most|many|some|few|none,all|most|many|some|few|none,right|wrong,12,,low,placeholder,Graduated College,1580336652301,placeholder,82,female,English,5d31dc6e42678e001a0bdedd,Describe these results of <strong>Riverside</strong> so as to make it appear as if there is a <strong>low</strong> success rate without lying.,many|many|wrong,5,In this exam,of the students got,of the questions,.,Wed Jan 29 2020 22:11:22 GMT+0000 (Greenwich Mean Time),1580335882689,1|0|1|0|0|0|0|0|0|0|0|0|1|0|0|0|1|0|1|0|1|1|1|0|0|0|0|0|0|0|1|0|0|1|1|0|1|0|1|0|1|0|0|0|1|0|0|1|0|0|0|0|0|0|1|1|1|1|1|0,12.826866666666668,main_trials,5
11650,,32496,30,0.4,all|most|many|some|few|none,all|most|many|some|few|none,right|wrong,12,,high,placeholder,Graduated College,1580336652301,placeholder,82,female,English,5d31dc6e42678e001a0bdedd,Describe these results of <strong>Green Valley</strong> so as to make it appear as if there is a <strong>high</strong> success rate without lying.,some|some|wrong,5,In this exam,of the students got,of the questions,.,Wed Jan 29 2020 22:11:22 GMT+0000 (Greenwich Mean Time),1580335882689,1|1|0|0|1|1|1|1|1|0|1|0|0|1|1|1|0|0|1|1|0|1|1|0|1|0|0|0|1|0|1|1|1|1|1|1|1|1|1|0|0|1|0|1|0|0|1|1|1|0|0|1|1|0|1|1|0|1|1|1,12.826866666666668,main_trials,6
11650,,16768,30,0.4,all|most|many|some|few|none,all|most|many|some|few|none,right|wrong,12,,low,placeholder,Graduated College,1580336652301,placeholder,82,female,English,5d31dc6e42678e001a0bdedd,Describe these results of <strong>Riverside</strong> so as to make it appear as if there is a <strong>low</strong> success rate without lying.,most|many|wrong,5,In this exam,of the students got,of the questions,.,Wed Jan 29 2020 22:11:22 GMT+0000 (Greenwich Mean Time),1580335882689,1|0|1|0|1|1|0|0|0|1|0|1|0|0|0|1|0|1|1|1|1|1|0|1|0|1|0|0|0|0|1|1|0|0|1|1|0|1|1|1|1|0|1|0|1|0|1|0|1|1|0|1|1|1|1|0|0|1|0|1,12.826866666666668,main_trials,7
11650,,13480,30,0.8,all|most|many|some|few|none,all|most|many|some|few|none,right|wrong,12,,high,placeholder,Graduated College,1580336652301,placeholder,82,female,English,5d31dc6e42678e001a0bdedd,Describe these results of <strong>Green Valley</strong> so as to make it appear as if there is a <strong>high</strong> success rate without lying.,most|most|right,5,In this exam,of the students got,of the questions,.,Wed Jan 29 2020 22:11:22 GMT+0000 (Greenwich Mean Time),1580335882689,1|0|1|0|0|0|0|0|0|0|1|1|0|0|0|0|0|0|0|0|1|0|0|0|0|0|0|0|0|0|0|0|0|0|0|0|0|0|0|0|1|0|0|0|1|0|0|0|1|0|0|0|0|0|0|0|0|0|0|0,12.826866666666668,main_trials,8
11650,,24383,30,0.8,all|most|many|some|few|none,all|most|many|some|few|none,right|wrong,12,,low,placeholder,Graduated College,1580336652301,placeholder,82,female,English,5d31dc6e42678e001a0bdedd,Describe these results of <strong>Riverside</strong> so as to make it appear as if there is a <strong>low</strong> success rate without lying.,most|many|wrong,5,In this exam,of the students got,of the questions,.,Wed Jan 29 2020 22:11:22 GMT+0000 (Greenwich Mean Time),1580335882689,0|0|1|0|0|0|1|0|0|1|0|1|0|0|0|1|1|0|1|0|0|1|1|1|0|0|0|0|0|0|0|0|0|0|0|0|0|0|0|0|1|0|0|0|0|0|0|1|0|0|0|0|1|0|1|0|0|0|0|0,12.826866666666668,main_trials,9
11650,,35426,30,0.3,all|most|many|some|few|none,all|most|many|some|few|none,right|wrong,12,,low,placeholder,Graduated College,1580336652301,placeholder,82,female,English,5d31dc6e42678e001a0bdedd,Describe these results of <strong>Riverside</strong> so as to make it appear as if there is a <strong>low</strong> success rate without lying.,most|many|wrong,5,In this exam,of the students got,of the questions,.,Wed Jan 29 2020 22:11:22 GMT+0000 (Greenwich Mean Time),1580335882689,1|1|1|1|1|1|1|0|1|1|0|1|0|1|1|1|0|1|1|1|0|1|1|1|0|0|0|1|1|1|0|1|0|1|1|1|0|1|1|1|1|0|0|1|0|1|0|1|0|1|1|1|0|1|0|0|0|0|0|1,12.826866666666668,main_trials,10
11650,,29744,30,0.2,all|most|many|some|few|none,all|most|many|some|few|none,right|wrong,12,,high,placeholder,Graduated College,1580336652301,placeholder,82,female,English,5d31dc6e42678e001a0bdedd,Describe these results of <strong>Green Valley</strong> so as to make it appear as if there is a <strong>high</strong> success rate without lying.,some|some|wrong,5,In this exam,of the students got,of the questions,.,Wed Jan 29 2020 22:11:22 GMT+0000 (Greenwich Mean Time),1580335882689,0|1|1|1|1|1|1|0|1|1|0|1|1|1|1|1|1|1|1|1|1|1|1|1|0|1|1|0|1|1|1|0|1|1|1|0|1|1|0|1|1|0|0|1|1|1|1|0|1|0|0|0|1|1|1|0|1|1|1|1,12.826866666666668,main_trials,11
11650,,49196,30,0.2,all|most|many|some|few|none,all|most|many|some|few|none,right|wrong,12,,low,placeholder,Graduated College,1580336652301,placeholder,82,female,English,5d31dc6e42678e001a0bdedd,Describe these results of <strong>Riverside</strong> so as to make it appear as if there is a <strong>low</strong> success rate without lying.,many|few|right,5,In this exam,of the students got,of the questions,.,Wed Jan 29 2020 22:11:22 GMT+0000 (Greenwich Mean Time),1580335882689,1|0|1|1|1|1|1|1|1|1|0|1|1|1|1|1|1|1|1|1|1|0|0|1|0|1|1|0|0|1|1|1|0|1|1|1|1|0|1|1|1|1|1|1|1|0|1|1|1|1|1|1|1|0|1|1|1|1|1|1,12.826866666666668,main_trials,12
11650,,15758,30,0.5,all|most|many|some|few|none,all|most|many|some|few|none,right|wrong,12,,low,placeholder,Graduated College,1580336652301,placeholder,82,female,English,5d31dc6e42678e001a0bdedd,Describe these results of <strong>Riverside</strong> so as to make it appear as if there is a <strong>low</strong> success rate without lying.,some|some|right,5,In this exam,of the students got,of the questions,.,Wed Jan 29 2020 22:11:22 GMT+0000 (Greenwich Mean Time),1580335882689,0|0|0|1|0|0|1|1|1|0|0|1|1|1|1|0|0|1|0|1|0|1|1|0|0|0|1|1|0|0|0|0|1|0|0|0|0|0|1|1|0|1|1|0|1|1|0|1|1|1|0|1|1|0|0|1|0|1|1|0,12.826866666666668,main_trials,13
11650,,19105,30,0.6,all|most|many|some|few|none,all|most|many|some|few|none,right|wrong,12,,high,placeholder,Graduated College,1580336652301,placeholder,82,female,English,5d31dc6e42678e001a0bdedd,Describe these results of <strong>Green Valley</strong> so as to make it appear as if there is a <strong>high</strong> success rate without lying.,many|some|right,5,In this exam,of the students got,of the questions,.,Wed Jan 29 2020 22:11:22 GMT+0000 (Greenwich Mean Time),1580335882689,0|0|1|1|1|0|0|0|0|1|1|0|0|1|1|1|1|0|0|0|0|1|0|0|1|0|0|0|0|1|0|0|0|0|1|0|1|0|1|0|1|0|1|0|0|1|1|0|1|0|1|0|0|1|0|1|1|0|0|1,12.826866666666668,main_trials,14
11649,,34605,22,0.9,all|most|many|some|few|none,all|most|many|some|few|none,right|wrong,12,,high,NA,Higher Degree,1580336488442,NA,82,female,English,5b0f53729663ee000145cb53,Describe these results of <strong>Green Valley</strong> so as to make it appear as if there is a <strong>high</strong> success rate without lying.,most|most|right,5,In this exam,of the students got,of the questions,.,Wed Jan 29 2020 22:07:35 GMT+0000 (Greenwich Mean Time),1580335655910,0|0|0|0|0|0|0|1|0|0|0|0|0|0|0|0|1|0|0|0|0|0|0|0|0|0|1|0|0|0|0|0|0|0|0|0|0|0|0|1|0|0|0|0|1|0|0|0|0|0|0|0|0|0|0|0|0|0|0|0,13.875533333333333,training_trials,1
11649,,40374,22,0.5,all|most|many|some|few|none,all|most|many|some|few|none,right|wrong,12,,low,NA,Higher Degree,1580336488442,NA,82,female,English,5b0f53729663ee000145cb53,Describe these results of <strong>Riverside</strong> so as to make it appear as if there is a <strong>low</strong> success rate without lying.,none|all|right,5,In this exam,of the students got,of the questions,.,Wed Jan 29 2020 22:07:35 GMT+0000 (Greenwich Mean Time),1580335655910,0|1|0|0|1|0|0|0|0|0|0|0|1|1|1|1|0|0|0|0|1|1|0|0|1|0|1|1|0|0|0|0|0|1|0|1|0|0|0|0|1|0|1|1|0|1|0|1|0|1|0|0|1|0|1|1|0|0|0|1,13.875533333333333,training_trials,2
11649,,35164,22,0.2,all|most|many|some|few|none,all|most|many|some|few|none,right|wrong,12,,high,NA,Higher Degree,1580336488442,NA,82,female,English,5b0f53729663ee000145cb53,Describe these results of <strong>Green Valley</strong> so as to make it appear as if there is a <strong>high</strong> success rate without lying.,some|some|wrong,5,In this exam,of the students got,of the questions,.,Wed Jan 29 2020 22:07:35 GMT+0000 (Greenwich Mean Time),1580335655910,1|1|1|1|1|1|0|1|1|1|1|1|0|0|0|1|1|1|0|0|1|0|1|0|1|1|1|0|0|1|1|1|1|0|0|1|0|1|1|1|1|1|1|1|1|0|1|1|0|0|0|0|0|1|0|1|1|1|1|1,13.875533333333333,training_trials,3
11649,,21436,22,0.6,all|most|many|some|few|none,all|most|many|some|few|none,right|wrong,12,,high,placeholder,Higher Degree,1580336488442,placeholder,82,female,English,5b0f53729663ee000145cb53,Describe these results of <strong>Green Valley</strong> so as to make it appear as if there is a <strong>high</strong> success rate without lying.,all|most|right,5,In this exam,of the students got,of the questions,.,Wed Jan 29 2020 22:07:35 GMT+0000 (Greenwich Mean Time),1580335655910,1|1|0|0|0|0|0|1|0|1|0|0|1|0|0|0|0|1|1|0|1|1|0|0|0|1|0|0|0|0|0|0|0|0|0|1|0|0|0|0|0|1|0|0|0|0|0|1|0|0|1|0|1|1|0|0|1|1|1|1,13.875533333333333,main_trials,1
11649,,20638,22,0.6,all|most|many|some|few|none,all|most|many|some|few|none,right|wrong,12,,low,placeholder,Higher Degree,1580336488442,placeholder,82,female,English,5b0f53729663ee000145cb53,Describe these results of <strong>Riverside</strong> so as to make it appear as if there is a <strong>low</strong> success rate without lying.,none|all|right,5,In this exam,of the students got,of the questions,.,Wed Jan 29 2020 22:07:35 GMT+0000 (Greenwich Mean Time),1580335655910,0|0|0|1|0|0|1|0|0|0|0|0|0|0|0|1|1|1|1|0|1|1|1|0|1|0|1|1|1|1|1|0|0|0|1|0|0|0|0|1|0|0|0|0|0|0|0|0|1|0|0|0|1|0|0|1|0|0|0|0,13.875533333333333,main_trials,2
11649,,19797,22,0.7,all|most|many|some|few|none,all|most|many|some|few|none,right|wrong,12,,high,placeholder,Higher Degree,1580336488442,placeholder,82,female,English,5b0f53729663ee000145cb53,Describe these results of <strong>Green Valley</strong> so as to make it appear as if there is a <strong>high</strong> success rate without lying.,some|some|wrong,5,In this exam,of the students got,of the questions,.,Wed Jan 29 2020 22:07:35 GMT+0000 (Greenwich Mean Time),1580335655910,0|1|1|1|0|0|1|0|0|1|0|0|1|0|0|1|1|1|1|0|0|1|0|0|1|0|0|0|1|1|0|0|1|0|0|1|0|1|0|0|1|0|1|0|0|0|0|0|1|0|0|1|0|0|1|0|0|0|0|0,13.875533333333333,main_trials,3
11649,,33557,22,0.2,all|most|many|some|few|none,all|most|many|some|few|none,right|wrong,12,,high,placeholder,Higher Degree,1580336488442,placeholder,82,female,English,5b0f53729663ee000145cb53,Describe these results of <strong>Green Valley</strong> so as to make it appear as if there is a <strong>high</strong> success rate without lying.,many|some|right,5,In this exam,of the students got,of the questions,.,Wed Jan 29 2020 22:07:35 GMT+0000 (Greenwich Mean Time),1580335655910,1|1|1|1|0|1|1|1|1|1|1|1|1|0|1|1|0|1|1|1|1|1|1|0|1|1|0|1|1|0|1|1|1|1|1|0|1|1|1|0|1|1|1|1|0|0|1|1|1|1|1|1|1|1|0|0|1|1|1|1,13.875533333333333,main_trials,4
11649,,16617,22,0.7,all|most|many|some|few|none,all|most|many|some|few|none,right|wrong,12,,low,placeholder,Higher Degree,1580336488442,placeholder,82,female,English,5b0f53729663ee000145cb53,Describe these results of <strong>Riverside</strong> so as to make it appear as if there is a <strong>low</strong> success rate without lying.,none|all|right,5,In this exam,of the students got,of the questions,.,Wed Jan 29 2020 22:07:35 GMT+0000 (Greenwich Mean Time),1580335655910,0|0|0|1|0|1|0|0|0|1|0|1|0|1|1|1|0|1|1|1|0|0|0|1|0|0|0|1|0|0|1|0|0|0|0|0|0|0|1|0|0|0|0|0|0|0|1|0|0|0|0|0|1|0|0|0|0|0|1|0,13.875533333333333,main_trials,5
11649,,29686,22,0.4,all|most|many|some|few|none,all|most|many|some|few|none,right|wrong,12,,high,placeholder,Higher Degree,1580336488442,placeholder,82,female,English,5b0f53729663ee000145cb53,Describe these results of <strong>Green Valley</strong> so as to make it appear as if there is a <strong>high</strong> success rate without lying.,most|many|right,5,In this exam,of the students got,of the questions,.,Wed Jan 29 2020 22:07:35 GMT+0000 (Greenwich Mean Time),1580335655910,0|1|0|0|1|1|1|1|0|1|1|1|1|1|1|1|1|1|0|1|1|0|1|0|1|1|1|1|1|0|1|1|1|1|1|0|1|1|1|1|1|1|1|0|1|0|0|1|0|0|0|1|1|1|1|1|1|1|0|0,13.875533333333333,main_trials,6
11649,,15191,22,0.8,all|most|many|some|few|none,all|most|many|some|few|none,right|wrong,12,,low,placeholder,Higher Degree,1580336488442,placeholder,82,female,English,5b0f53729663ee000145cb53,Describe these results of <strong>Riverside</strong> so as to make it appear as if there is a <strong>low</strong> success rate without lying.,most|many|wrong,5,In this exam,of the students got,of the questions,.,Wed Jan 29 2020 22:07:35 GMT+0000 (Greenwich Mean Time),1580335655910,0|0|0|0|0|0|0|0|0|0|0|0|0|0|0|0|1|1|0|0|0|0|0|0|0|0|0|1|0|0|0|0|0|0|0|0|0|0|0|0|1|0|0|1|0|1|1|0|0|1|0|0|0|1|0|0|0|0|0|0,13.875533333333333,main_trials,7
11649,,14918,22,0.2,all|most|many|some|few|none,all|most|many|some|few|none,right|wrong,12,,low,placeholder,Higher Degree,1580336488442,placeholder,82,female,English,5b0f53729663ee000145cb53,Describe these results of <strong>Riverside</strong> so as to make it appear as if there is a <strong>low</strong> success rate without lying.,none|all|right,5,In this exam,of the students got,of the questions,.,Wed Jan 29 2020 22:07:35 GMT+0000 (Greenwich Mean Time),1580335655910,1|1|1|1|1|0|1|0|1|1|1|1|1|1|1|1|0|1|1|1|1|0|1|1|1|1|1|0|1|1|1|1|1|1|0|1|0|1|1|1|1|0|1|0|1|1|1|0|1|1|1|1|0|0|1|1|1|1|1|1,13.875533333333333,main_trials,8
11649,,13554,22,0.5,all|most|many|some|few|none,all|most|many|some|few|none,right|wrong,12,,high,placeholder,Higher Degree,1580336488442,placeholder,82,female,English,5b0f53729663ee000145cb53,Describe these results of <strong>Green Valley</strong> so as to make it appear as if there is a <strong>high</strong> success rate without lying.,most|most|right,5,In this exam,of the students got,of the questions,.,Wed Jan 29 2020 22:07:35 GMT+0000 (Greenwich Mean Time),1580335655910,1|0|1|1|1|1|0|0|1|1|0|0|1|1|1|0|0|0|0|0|0|0|0|0|1|1|1|1|0|0|0|1|0|1|0|0|0|0|1|0|1|0|1|0|0|1|0|1|1|0|1|0|0|1|0|1|1|1|0|1,13.875533333333333,main_trials,9
11649,,155552,22,0.5,all|most|many|some|few|none,all|most|many|some|few|none,right|wrong,12,,low,placeholder,Higher Degree,1580336488442,placeholder,82,female,English,5b0f53729663ee000145cb53,Describe these results of <strong>Riverside</strong> so as to make it appear as if there is a <strong>low</strong> success rate without lying.,all|many|wrong,5,In this exam,of the students got,of the questions,.,Wed Jan 29 2020 22:07:35 GMT+0000 (Greenwich Mean Time),1580335655910,0|0|1|0|1|0|0|1|0|1|0|0|1|0|1|1|0|1|0|0|0|0|0|1|0|1|1|1|0|1|1|0|1|1|1|0|0|1|0|0|1|0|1|0|1|1|0|0|0|1|0|0|1|0|1|0|1|0|1|1,13.875533333333333,main_trials,10
11649,,15214,22,0.3,all|most|many|some|few|none,all|most|many|some|few|none,right|wrong,12,,high,placeholder,Higher Degree,1580336488442,placeholder,82,female,English,5b0f53729663ee000145cb53,Describe these results of <strong>Green Valley</strong> so as to make it appear as if there is a <strong>high</strong> success rate without lying.,some|some|wrong,5,In this exam,of the students got,of the questions,.,Wed Jan 29 2020 22:07:35 GMT+0000 (Greenwich Mean Time),1580335655910,1|0|1|1|1|0|1|1|1|0|1|0|0|1|0|1|1|1|1|1|1|0|1|1|1|0|1|1|0|1|1|1|1|1|1|1|1|1|1|0|1|0|1|1|1|0|0|0|1|0|1|1|1|0|0|1|1|1|1|1,13.875533333333333,main_trials,11
11649,,13112,22,0.8,all|most|many|some|few|none,all|most|many|some|few|none,right|wrong,12,,high,placeholder,Higher Degree,1580336488442,placeholder,82,female,English,5b0f53729663ee000145cb53,Describe these results of <strong>Green Valley</strong> so as to make it appear as if there is a <strong>high</strong> success rate without lying.,all|most|right,5,In this exam,of the students got,of the questions,.,Wed Jan 29 2020 22:07:35 GMT+0000 (Greenwich Mean Time),1580335655910,0|1|0|1|0|0|0|0|0|0|0|1|0|0|0|0|0|1|0|0|1|0|0|0|0|0|0|0|1|0|0|0|0|1|0|0|0|0|0|0|0|0|1|0|0|0|0|1|1|0|0|0|0|0|0|0|1|1|0|0,13.875533333333333,main_trials,12
11649,,165591,22,0.3,all|most|many|some|few|none,all|most|many|some|few|none,right|wrong,12,,low,placeholder,Higher Degree,1580336488442,placeholder,82,female,English,5b0f53729663ee000145cb53,Describe these results of <strong>Riverside</strong> so as to make it appear as if there is a <strong>low</strong> success rate without lying.,all|most|wrong,5,In this exam,of the students got,of the questions,.,Wed Jan 29 2020 22:07:35 GMT+0000 (Greenwich Mean Time),1580335655910,0|1|1|1|1|1|1|0|1|1|1|1|1|1|1|1|1|0|0|0|0|1|0|1|0|1|1|1|1|1|0|1|1|1|0|1|0|1|0|0|1|1|1|1|1|1|1|0|1|0|1|1|0|1|1|1|1|1|1|0,13.875533333333333,main_trials,13
11649,,10284,22,0.4,all|most|many|some|few|none,all|most|many|some|few|none,right|wrong,12,,low,placeholder,Higher Degree,1580336488442,placeholder,82,female,English,5b0f53729663ee000145cb53,Describe these results of <strong>Riverside</strong> so as to make it appear as if there is a <strong>low</strong> success rate without lying.,all|most|wrong,5,In this exam,of the students got,of the questions,.,Wed Jan 29 2020 22:07:35 GMT+0000 (Greenwich Mean Time),1580335655910,1|1|1|0|1|0|0|1|1|1|1|1|0|1|1|0|1|1|1|1|1|1|1|1|1|1|1|0|1|0|1|1|1|1|0|1|1|0|1|1|0|1|1|0|1|0|0|0|0|1|1|1|1|1|0|1|0|1|0|1,13.875533333333333,main_trials,14
11652,,51285,40,0.5,all|most|many|some|few|none,all|most|many|some|few|none,right|wrong,12,,low,NA,Graduated College,1580336854267,NA,82,female,english,5a9b0be8b5e2110001c6ca67,Describe these results of <strong>Riverside</strong> so as to make it appear as if there is a <strong>low</strong> success rate without lying.,all|many|wrong,5,In this exam,of the students got,of the questions,.,Wed Jan 29 2020 22:16:28 GMT+0000 (Greenwich Mean Time),1580336188876,1|0|0|0|1|1|0|0|0|1|0|0|1|0|1|0|0|1|0|1|1|1|0|1|1|1|1|1|1|0|0|1|1|0|1|1|0|0|0|1|1|1|1|0|1|0|0|0|0|1|0|0|1|1|0|1|0|1|1|0,11.08985,training_trials,1
11652,,41950,40,0.9,all|most|many|some|few|none,all|most|many|some|few|none,right|wrong,12,,high,NA,Graduated College,1580336854267,NA,82,female,english,5a9b0be8b5e2110001c6ca67,Describe these results of <strong>Green Valley</strong> so as to make it appear as if there is a <strong>high</strong> success rate without lying.,most|most|right,5,In this exam,of the students got,of the questions,.,Wed Jan 29 2020 22:16:28 GMT+0000 (Greenwich Mean Time),1580336188876,0|0|1|0|0|0|0|1|0|0|0|0|0|0|0|0|0|0|0|0|0|1|0|0|0|0|0|0|0|0|0|0|0|1|0|0|0|0|0|0|0|0|0|0|0|0|0|0|0|0|0|1|0|0|0|0|1|1|0|0,11.08985,training_trials,2
11652,,24509,40,0.2,all|most|many|some|few|none,all|most|many|some|few|none,right|wrong,12,,high,NA,Graduated College,1580336854267,NA,82,female,english,5a9b0be8b5e2110001c6ca67,Describe these results of <strong>Green Valley</strong> so as to make it appear as if there is a <strong>high</strong> success rate without lying.,all|some|right,5,In this exam,of the students got,of the questions,.,Wed Jan 29 2020 22:16:28 GMT+0000 (Greenwich Mean Time),1580336188876,0|1|1|1|1|0|0|1|1|1|0|1|1|0|1|1|0|1|1|1|0|1|1|1|1|1|1|1|0|1|1|1|1|1|1|1|0|1|1|1|1|0|0|1|0|0|1|1|0|1|1|1|1|1|1|1|0|1|0|0,11.08985,training_trials,3
11652,,24816,40,0.2,all|most|many|some|few|none,all|most|many|some|few|none,right|wrong,12,,low,placeholder,Graduated College,1580336854267,placeholder,82,female,english,5a9b0be8b5e2110001c6ca67,Describe these results of <strong>Riverside</strong> so as to make it appear as if there is a <strong>low</strong> success rate without lying.,all|most|wrong,5,In this exam,of the students got,of the questions,.,Wed Jan 29 2020 22:16:28 GMT+0000 (Greenwich Mean Time),1580336188876,0|1|1|1|0|1|1|0|1|0|1|1|1|0|1|0|1|1|1|1|1|0|1|1|1|0|1|1|1|1|1|1|0|0|1|1|1|0|1|1|1|1|1|1|0|0|1|1|0|0|1|1|0|0|1|1|1|1|1|0,11.08985,main_trials,1
11652,,22248,40,0.7,all|most|many|some|few|none,all|most|many|some|few|none,right|wrong,12,,high,placeholder,Graduated College,1580336854267,placeholder,82,female,english,5a9b0be8b5e2110001c6ca67,Describe these results of <strong>Green Valley</strong> so as to make it appear as if there is a <strong>high</strong> success rate without lying.,some|most|right,5,In this exam,of the students got,of the questions,.,Wed Jan 29 2020 22:16:28 GMT+0000 (Greenwich Mean Time),1580336188876,1|1|1|1|0|1|0|1|0|1|0|0|0|0|0|1|0|1|0|0|0|0|1|0|0|1|0|0|0|0|0|0|0|0|0|0|0|1|1|0|1|0|0|0|0|1|0|1|1|1|0|0|1|0|0|1|0|0|0|0,11.08985,main_trials,2
11652,,25511,40,0.3,all|most|many|some|few|none,all|most|many|some|few|none,right|wrong,12,,low,placeholder,Graduated College,1580336854267,placeholder,82,female,english,5a9b0be8b5e2110001c6ca67,Describe these results of <strong>Riverside</strong> so as to make it appear as if there is a <strong>low</strong> success rate without lying.,all|most|wrong,5,In this exam,of the students got,of the questions,.,Wed Jan 29 2020 22:16:28 GMT+0000 (Greenwich Mean Time),1580336188876,1|0|1|1|1|0|1|1|0|1|0|1|0|1|0|0|1|1|1|1|1|1|1|1|0|1|1|1|1|1|0|0|0|1|0|1|0|1|1|0|1|0|1|1|1|1|1|1|1|0|1|1|1|1|1|1|1|0|1|1,11.08985,main_trials,3
11652,,19354,40,0.4,all|most|many|some|few|none,all|most|many|some|few|none,right|wrong,12,,high,placeholder,Graduated College,1580336854267,placeholder,82,female,english,5a9b0be8b5e2110001c6ca67,Describe these results of <strong>Green Valley</strong> so as to make it appear as if there is a <strong>high</strong> success rate without lying.,some|most|right,5,In this exam,of the students got,of the questions,.,Wed Jan 29 2020 22:16:28 GMT+0000 (Greenwich Mean Time),1580336188876,1|1|1|1|1|1|1|1|0|0|0|0|0|0|0|1|0|0|1|0|0|1|1|1|1|0|0|0|1|1|0|0|1|1|1|1|0|1|1|0|1|0|0|0|0|1|0|1|1|1|0|1|1|1|0|1|0|1|1|0,11.08985,main_trials,4
11652,,28213,40,0.6,all|most|many|some|few|none,all|most|many|some|few|none,right|wrong,12,,low,placeholder,Graduated College,1580336854267,placeholder,82,female,english,5a9b0be8b5e2110001c6ca67,Describe these results of <strong>Riverside</strong> so as to make it appear as if there is a <strong>low</strong> success rate without lying.,some|most|wrong,5,In this exam,of the students got,of the questions,.,Wed Jan 29 2020 22:16:28 GMT+0000 (Greenwich Mean Time),1580336188876,0|0|0|0|1|0|0|1|1|1|0|1|0|0|1|1|1|1|1|0|1|0|0|1|1|1|0|0|0|0|1|0|0|0|0|0|1|1|0|0|1|0|0|1|0|1|0|0|1|0|0|0|1|0|0|0|0|1|0|0,11.08985,main_trials,5
11652,,46620,40,0.5,all|most|many|some|few|none,all|most|many|some|few|none,right|wrong,12,,low,placeholder,Graduated College,1580336854267,placeholder,82,female,english,5a9b0be8b5e2110001c6ca67,Describe these results of <strong>Riverside</strong> so as to make it appear as if there is a <strong>low</strong> success rate without lying.,most|many|wrong,5,In this exam,of the students got,of the questions,.,Wed Jan 29 2020 22:16:28 GMT+0000 (Greenwich Mean Time),1580336188876,0|1|1|0|0|1|0|0|1|1|1|1|0|1|0|1|0|0|0|1|1|1|0|0|1|0|0|1|1|1|1|0|0|0|1|1|0|1|1|0|0|1|0|1|0|0|0|1|0|1|0|1|0|0|0|0|0|1|1|0,11.08985,main_trials,6
11652,,19949,40,0.2,all|most|many|some|few|none,all|most|many|some|few|none,right|wrong,12,,high,placeholder,Graduated College,1580336854267,placeholder,82,female,english,5a9b0be8b5e2110001c6ca67,Describe these results of <strong>Green Valley</strong> so as to make it appear as if there is a <strong>high</strong> success rate without lying.,most|some|right,5,In this exam,of the students got,of the questions,.,Wed Jan 29 2020 22:16:28 GMT+0000 (Greenwich Mean Time),1580336188876,1|1|1|1|1|1|1|1|1|1|1|0|1|0|1|1|1|0|0|1|1|0|1|1|1|1|0|1|1|1|1|1|1|1|1|1|1|1|1|1|1|1|1|1|1|1|1|1|1|1|1|1|1|0|1|1|1|1|0|1,11.08985,main_trials,7
11652,,24329,40,0.6,all|most|many|some|few|none,all|most|many|some|few|none,right|wrong,12,,high,placeholder,Graduated College,1580336854267,placeholder,82,female,english,5a9b0be8b5e2110001c6ca67,Describe these results of <strong>Green Valley</strong> so as to make it appear as if there is a <strong>high</strong> success rate without lying.,many|most|right,5,In this exam,of the students got,of the questions,.,Wed Jan 29 2020 22:16:28 GMT+0000 (Greenwich Mean Time),1580336188876,0|1|0|0|0|0|0|1|1|0|1|1|0|1|0|1|0|0|0|1|0|0|1|1|0|1|1|0|0|0|1|1|1|1|1|0|1|0|0|0|1|0|1|0|0|1|1|0|1|0|0|0|0|0|0|1|1|0|1|1,11.08985,main_trials,8
11652,,19814,40,0.8,all|most|many|some|few|none,all|most|many|some|few|none,right|wrong,12,,low,placeholder,Graduated College,1580336854267,placeholder,82,female,english,5a9b0be8b5e2110001c6ca67,Describe these results of <strong>Riverside</strong> so as to make it appear as if there is a <strong>low</strong> success rate without lying.,none|all|right,5,In this exam,of the students got,of the questions,.,Wed Jan 29 2020 22:16:28 GMT+0000 (Greenwich Mean Time),1580336188876,0|0|0|0|0|0|0|0|0|0|0|1|0|1|0|0|0|0|0|0|1|0|1|0|1|0|1|0|0|0|0|0|0|0|0|0|0|0|1|0|0|0|0|0|0|0|0|0|1|0|0|1|0|0|0|1|1|0|0|0,11.08985,main_trials,9
11652,,35224,40,0.8,all|most|many|some|few|none,all|most|many|some|few|none,right|wrong,12,,high,placeholder,Graduated College,1580336854267,placeholder,82,female,english,5a9b0be8b5e2110001c6ca67,Describe these results of <strong>Green Valley</strong> so as to make it appear as if there is a <strong>high</strong> success rate without lying.,all|few|wrong,5,In this exam,of the students got,of the questions,.,Wed Jan 29 2020 22:16:28 GMT+0000 (Greenwich Mean Time),1580336188876,0|0|0|0|0|1|0|0|0|0|0|0|0|1|0|0|0|0|1|1|0|0|0|1|0|0|0|0|1|0|1|0|0|0|0|0|0|0|0|1|0|0|0|0|0|0|0|0|0|0|0|1|0|0|0|0|0|0|1|0,11.08985,main_trials,10
11652,,35167,40,0.3,all|most|many|some|few|none,all|most|many|some|few|none,right|wrong,12,,high,placeholder,Graduated College,1580336854267,placeholder,82,female,english,5a9b0be8b5e2110001c6ca67,Describe these results of <strong>Green Valley</strong> so as to make it appear as if there is a <strong>high</strong> success rate without lying.,all|some|right,5,In this exam,of the students got,of the questions,.,Wed Jan 29 2020 22:16:28 GMT+0000 (Greenwich Mean Time),1580336188876,1|1|1|0|1|0|1|1|0|1|1|1|1|1|1|0|1|1|1|1|0|1|1|0|0|0|1|0|1|0|0|1|1|1|1|1|1|1|1|1|1|0|0|1|0|1|0|0|1|0|0|1|1|0|1|1|0|0|0|0,11.08985,main_trials,11
11652,,53136,40,0.5,all|most|many|some|few|none,all|most|many|some|few|none,right|wrong,12,,high,placeholder,Graduated College,1580336854267,placeholder,82,female,english,5a9b0be8b5e2110001c6ca67,Describe these results of <strong>Green Valley</strong> so as to make it appear as if there is a <strong>high</strong> success rate without lying.,all|some|right,5,In this exam,of the students got,of the questions,.,Wed Jan 29 2020 22:16:28 GMT+0000 (Greenwich Mean Time),1580336188876,1|0|1|1|0|1|0|1|1|0|1|0|1|0|0|1|1|1|1|1|1|0|1|1|1|1|0|0|1|0|0|0|1|1|0|1|0|1|1|0|0|1|0|0|0|1|1|0|0|0|0|1|0|0|1|1|1|1|1|0,11.08985,main_trials,12
11652,,32799,40,0.4,all|most|many|some|few|none,all|most|many|some|few|none,right|wrong,12,,low,placeholder,Graduated College,1580336854267,placeholder,82,female,english,5a9b0be8b5e2110001c6ca67,Describe these results of <strong>Riverside</strong> so as to make it appear as if there is a <strong>low</strong> success rate without lying.,none|all|right,5,In this exam,of the students got,of the questions,.,Wed Jan 29 2020 22:16:28 GMT+0000 (Greenwich Mean Time),1580336188876,1|1|1|0|1|0|1|1|0|0|0|0|1|0|1|1|0|0|0|0|1|0|0|0|0|0|0|0|1|0|0|0|0|0|0|0|1|0|0|1|1|0|1|0|0|0|1|0|0|1|0|1|0|1|0|1|0|0|1|0,11.08985,main_trials,13
11652,,26537,40,0.7,all|most|many|some|few|none,all|most|many|some|few|none,right|wrong,12,,low,placeholder,Graduated College,1580336854267,placeholder,82,female,english,5a9b0be8b5e2110001c6ca67,Describe these results of <strong>Riverside</strong> so as to make it appear as if there is a <strong>low</strong> success rate without lying.,some|many|wrong,5,In this exam,of the students got,of the questions,.,Wed Jan 29 2020 22:16:28 GMT+0000 (Greenwich Mean Time),1580336188876,0|1|0|0|0|0|0|0|0|0|0|1|0|0|0|0|1|1|0|1|0|0|0|0|1|0|0|0|0|0|1|1|1|0|1|0|1|0|0|1|0|0|0|0|0|0|1|0|0|0|1|0|1|0|0|0|1|0|0|0,11.08985,main_trials,14
11653,,49994,43,0.9,all|most|many|some|few|none,all|most|many|some|few|none,right|wrong,12,Enjoyable study.  Thank you :),high,NA,Graduated College,1580337006373,NA,82,male,English,5d926164243c0c00183694d4,Describe these results of <strong>Green Valley</strong> so as to make it appear as if there is a <strong>high</strong> success rate without lying.,all|most|right,5,In this exam,of the students got,of the questions,.,Wed Jan 29 2020 22:11:35 GMT+0000 (Greenwich Mean Time),1580335895428,0|0|0|0|0|0|0|0|0|0|0|1|0|0|0|0|0|0|0|1|0|0|0|0|0|1|0|0|1|0|0|0|0|0|0|0|0|1|0|0|0|0|0|0|0|0|0|0|0|0|0|0|1|0|0|1|0|0|0|0,18.51575,training_trials,1
11653,,80469,43,0.5,all|most|many|some|few|none,all|most|many|some|few|none,right|wrong,12,Enjoyable study.  Thank you :),low,NA,Graduated College,1580337006373,NA,82,male,English,5d926164243c0c00183694d4,Describe these results of <strong>Riverside</strong> so as to make it appear as if there is a <strong>low</strong> success rate without lying.,most|many|wrong,5,In this exam,of the students got,of the questions,.,Wed Jan 29 2020 22:11:35 GMT+0000 (Greenwich Mean Time),1580335895428,0|1|1|1|1|0|0|0|0|0|0|1|0|0|0|0|1|1|0|1|1|0|1|1|0|0|0|1|0|1|1|0|0|1|1|1|1|1|1|0|1|1|1|1|0|0|1|0|0|1|1|1|1|1|0|1|0|0|1|1,18.51575,training_trials,2
11653,,77208,43,0.2,all|most|many|some|few|none,all|most|many|some|few|none,right|wrong,12,Enjoyable study.  Thank you :),high,NA,Graduated College,1580337006373,NA,82,male,English,5d926164243c0c00183694d4,Describe these results of <strong>Green Valley</strong> so as to make it appear as if there is a <strong>high</strong> success rate without lying.,most|some|right,5,In this exam,of the students got,of the questions,.,Wed Jan 29 2020 22:11:35 GMT+0000 (Greenwich Mean Time),1580335895428,1|1|1|1|1|1|1|1|1|0|1|1|1|1|1|1|1|1|1|1|1|0|1|1|1|1|1|1|1|1|1|1|1|1|1|1|1|1|1|1|1|1|0|1|1|1|1|1|1|1|1|1|1|1|1|0|1|0|1|0,18.51575,training_trials,3
11653,,64103,43,0.5,all|most|many|some|few|none,all|most|many|some|few|none,right|wrong,12,Enjoyable study.  Thank you :),high,placeholder,Graduated College,1580337006373,placeholder,82,male,English,5d926164243c0c00183694d4,Describe these results of <strong>Green Valley</strong> so as to make it appear as if there is a <strong>high</strong> success rate without lying.,most|many|right,5,In this exam,of the students got,of the questions,.,Wed Jan 29 2020 22:11:35 GMT+0000 (Greenwich Mean Time),1580335895428,0|0|1|0|0|1|1|0|1|0|0|0|0|1|1|1|1|1|1|1|1|1|1|1|0|1|1|0|0|0|0|1|1|1|0|1|1|1|1|0|1|0|0|1|0|1|1|0|0|1|0|1|1|0|0|1|1|1|0|0,18.51575,main_trials,1
11653,,57388,43,0.6,all|most|many|some|few|none,all|most|many|some|few|none,right|wrong,12,Enjoyable study.  Thank you :),high,placeholder,Graduated College,1580337006373,placeholder,82,male,English,5d926164243c0c00183694d4,Describe these results of <strong>Green Valley</strong> so as to make it appear as if there is a <strong>high</strong> success rate without lying.,all|many|right,5,In this exam,of the students got,of the questions,.,Wed Jan 29 2020 22:11:35 GMT+0000 (Greenwich Mean Time),1580335895428,0|0|0|0|0|1|1|0|0|0|0|0|0|1|1|1|1|0|0|1|0|1|0|1|1|1|1|1|1|1|0|0|1|0|0|1|1|1|1|1|0|0|0|0|1|1|1|0|1|1|0|0|0|0|0|0|0|1|1|0,18.51575,main_trials,2
11653,,55662,43,0.3,all|most|many|some|few|none,all|most|many|some|few|none,right|wrong,12,Enjoyable study.  Thank you :),low,placeholder,Graduated College,1580337006373,placeholder,82,male,English,5d926164243c0c00183694d4,Describe these results of <strong>Riverside</strong> so as to make it appear as if there is a <strong>low</strong> success rate without lying.,most|most|wrong,5,In this exam,of the students got,of the questions,.,Wed Jan 29 2020 22:11:35 GMT+0000 (Greenwich Mean Time),1580335895428,1|1|1|0|0|1|1|0|1|0|1|1|1|1|1|1|1|0|1|1|0|1|0|1|1|1|1|1|1|1|1|1|1|1|1|0|0|0|1|0|1|0|1|0|0|1|1|1|0|1|1|0|1|0|1|1|1|1|0|0,18.51575,main_trials,3
11653,,84650,43,0.7,all|most|many|some|few|none,all|most|many|some|few|none,right|wrong,12,Enjoyable study.  Thank you :),high,placeholder,Graduated College,1580337006373,placeholder,82,male,English,5d926164243c0c00183694d4,Describe these results of <strong>Green Valley</strong> so as to make it appear as if there is a <strong>high</strong> success rate without lying.,all|most|right,5,In this exam,of the students got,of the questions,.,Wed Jan 29 2020 22:11:35 GMT+0000 (Greenwich Mean Time),1580335895428,1|0|1|0|0|0|0|1|0|0|0|1|0|0|0|0|0|0|0|0|0|0|0|0|0|1|1|1|0|0|0|0|1|0|0|0|1|1|0|1|1|1|0|0|0|0|0|0|0|0|0|1|1|0|0|0|0|0|1|1,18.51575,main_trials,4
11653,,72745,43,0.8,all|most|many|some|few|none,all|most|many|some|few|none,right|wrong,12,Enjoyable study.  Thank you :),high,placeholder,Graduated College,1580337006373,placeholder,82,male,English,5d926164243c0c00183694d4,Describe these results of <strong>Green Valley</strong> so as to make it appear as if there is a <strong>high</strong> success rate without lying.,all|most|right,5,In this exam,of the students got,of the questions,.,Wed Jan 29 2020 22:11:35 GMT+0000 (Greenwich Mean Time),1580335895428,0|0|0|0|0|0|1|0|0|1|0|0|0|0|1|0|1|0|0|0|1|0|0|0|0|0|1|0|0|0|0|0|0|0|0|0|0|0|1|0|0|0|0|0|0|0|0|0|0|0|0|0|0|0|0|0|0|0|0|0,18.51575,main_trials,5
11653,,66428,43,0.5,all|most|many|some|few|none,all|most|many|some|few|none,right|wrong,12,Enjoyable study.  Thank you :),low,placeholder,Graduated College,1580337006373,placeholder,82,male,English,5d926164243c0c00183694d4,Describe these results of <strong>Riverside</strong> so as to make it appear as if there is a <strong>low</strong> success rate without lying.,most|many|wrong,5,In this exam,of the students got,of the questions,.,Wed Jan 29 2020 22:11:35 GMT+0000 (Greenwich Mean Time),1580335895428,1|1|1|0|0|0|0|0|1|0|1|0|0|0|0|0|1|0|0|0|0|0|0|1|0|1|0|0|0|0|1|0|0|1|0|0|1|1|1|1|0|1|0|0|1|1|1|0|1|1|1|0|0|0|1|0|1|1|1|0,18.51575,main_trials,6
11653,,20595,43,0.7,all|most|many|some|few|none,all|most|many|some|few|none,right|wrong,12,Enjoyable study.  Thank you :),low,placeholder,Graduated College,1580337006373,placeholder,82,male,English,5d926164243c0c00183694d4,Describe these results of <strong>Riverside</strong> so as to make it appear as if there is a <strong>low</strong> success rate without lying.,all|some|wrong,5,In this exam,of the students got,of the questions,.,Wed Jan 29 2020 22:11:35 GMT+0000 (Greenwich Mean Time),1580335895428,1|1|0|0|0|0|1|1|0|1|1|0|1|0|0|0|0|1|0|0|1|0|0|1|1|0|0|0|0|0|1|1|0|0|0|1|1|1|0|1|0|0|0|1|0|0|1|0|0|0|1|0|0|0|1|0|0|1|0|1,18.51575,main_trials,7
11653,,29721,43,0.4,all|most|many|some|few|none,all|most|many|some|few|none,right|wrong,12,Enjoyable study.  Thank you :),low,placeholder,Graduated College,1580337006373,placeholder,82,male,English,5d926164243c0c00183694d4,Describe these results of <strong>Riverside</strong> so as to make it appear as if there is a <strong>low</strong> success rate without lying.,most|most|wrong,5,In this exam,of the students got,of the questions,.,Wed Jan 29 2020 22:11:35 GMT+0000 (Greenwich Mean Time),1580335895428,1|0|1|1|1|1|1|1|0|1|0|1|0|1|0|0|0|0|0|0|0|1|0|0|0|0|1|1|1|1|1|1|0|0|1|1|1|1|1|0|1|0|0|1|1|0|1|0|0|0|1|1|1|1|1|1|0|1|1|0,18.51575,main_trials,8
11653,,50102,43,0.3,all|most|many|some|few|none,all|most|many|some|few|none,right|wrong,12,Enjoyable study.  Thank you :),high,placeholder,Graduated College,1580337006373,placeholder,82,male,English,5d926164243c0c00183694d4,Describe these results of <strong>Green Valley</strong> so as to make it appear as if there is a <strong>high</strong> success rate without lying.,none|all|wrong,5,In this exam,of the students got,of the questions,.,Wed Jan 29 2020 22:11:35 GMT+0000 (Greenwich Mean Time),1580335895428,0|0|1|1|1|1|1|1|1|1|1|1|1|1|1|1|0|1|1|1|1|1|0|1|1|1|0|1|1|1|0|1|1|0|1|1|1|1|0|1|1|1|0|1|1|1|1|1|1|1|0|0|1|0|1|1|1|1|1|1,18.51575,main_trials,9
11653,,75169,43,0.8,all|most|many|some|few|none,all|most|many|some|few|none,right|wrong,12,Enjoyable study.  Thank you :),low,placeholder,Graduated College,1580337006373,placeholder,82,male,English,5d926164243c0c00183694d4,Describe these results of <strong>Riverside</strong> so as to make it appear as if there is a <strong>low</strong> success rate without lying.,most|few|wrong,5,In this exam,of the students got,of the questions,.,Wed Jan 29 2020 22:11:35 GMT+0000 (Greenwich Mean Time),1580335895428,0|0|0|0|1|0|0|1|1|0|0|0|0|1|1|0|0|1|0|1|0|0|0|0|1|1|0|0|0|1|0|0|0|0|1|1|0|0|0|0|0|1|0|0|0|0|0|0|0|1|0|0|0|0|0|0|1|0|0|1,18.51575,main_trials,10
11653,,28067,43,0.4,all|most|many|some|few|none,all|most|many|some|few|none,right|wrong,12,Enjoyable study.  Thank you :),high,placeholder,Graduated College,1580337006373,placeholder,82,male,English,5d926164243c0c00183694d4,Describe these results of <strong>Green Valley</strong> so as to make it appear as if there is a <strong>high</strong> success rate without lying.,none|all|wrong,5,In this exam,of the students got,of the questions,.,Wed Jan 29 2020 22:11:35 GMT+0000 (Greenwich Mean Time),1580335895428,1|1|1|0|1|0|0|1|0|0|0|1|0|0|1|0|0|1|1|1|0|1|1|0|1|1|1|0|1|1|1|1|1|0|1|1|0|1|0|0|0|1|0|1|0|1|0|1|1|1|1|0|1|0|1|0|0|0|1|1,18.51575,main_trials,11
11653,,15061,43,0.2,all|most|many|some|few|none,all|most|many|some|few|none,right|wrong,12,Enjoyable study.  Thank you :),low,placeholder,Graduated College,1580337006373,placeholder,82,male,English,5d926164243c0c00183694d4,Describe these results of <strong>Riverside</strong> so as to make it appear as if there is a <strong>low</strong> success rate without lying.,all|most|wrong,5,In this exam,of the students got,of the questions,.,Wed Jan 29 2020 22:11:35 GMT+0000 (Greenwich Mean Time),1580335895428,1|1|1|0|1|1|1|0|1|1|1|1|1|0|1|0|1|1|1|0|1|1|0|1|1|0|1|1|1|1|1|1|0|1|1|1|1|1|0|1|1|1|1|0|1|1|1|1|1|1|1|1|1|1|1|1|1|0|1|1,18.51575,main_trials,12
11653,,31012,43,0.6,all|most|many|some|few|none,all|most|many|some|few|none,right|wrong,12,Enjoyable study.  Thank you :),low,placeholder,Graduated College,1580337006373,placeholder,82,male,English,5d926164243c0c00183694d4,Describe these results of <strong>Riverside</strong> so as to make it appear as if there is a <strong>low</strong> success rate without lying.,some|many|wrong,5,In this exam,of the students got,of the questions,.,Wed Jan 29 2020 22:11:35 GMT+0000 (Greenwich Mean Time),1580335895428,1|0|1|0|0|1|1|1|1|0|0|0|0|1|1|0|1|0|0|1|0|1|1|1|1|1|0|0|0|0|0|0|0|0|0|0|0|1|0|0|1|1|0|1|0|0|0|1|0|0|0|1|0|0|0|1|1|1|0|1,18.51575,main_trials,13
11653,,48536,43,0.2,all|most|many|some|few|none,all|most|many|some|few|none,right|wrong,12,Enjoyable study.  Thank you :),high,placeholder,Graduated College,1580337006373,placeholder,82,male,English,5d926164243c0c00183694d4,Describe these results of <strong>Green Valley</strong> so as to make it appear as if there is a <strong>high</strong> success rate without lying.,most|some|right,5,In this exam,of the students got,of the questions,.,Wed Jan 29 2020 22:11:35 GMT+0000 (Greenwich Mean Time),1580335895428,1|1|1|1|0|1|0|1|0|1|0|0|0|1|1|0|1|1|1|0|1|1|1|1|1|1|1|1|1|1|1|1|1|1|1|1|1|1|1|0|1|1|1|1|1|1|0|1|1|1|1|1|1|1|1|0|1|1|1|1,18.51575,main_trials,14
