submission_id,QUD,RT,age,choice_options_1,choice_options_2,choice_options_3,column_number,comments,condition,correct,education,endTime,expected,experiment_id,gender,languages,prolific_id,question,response,row_number,sentence_chunk_1,sentence_chunk_2,sentence_chunk_3,sentence_chunk_4,sitation_number,situation,startDate,startTime,stimulus,timeSpent,trial_name,trial_number
11718,,48349,20,all|most|some|none,all|most|some|none,right|wrong,5,,high,placeholder,Graduated High School,1580401846536,placeholder,83,female,English,5d1a4405883c4d0001e5fd84,Describe these results of <strong>Green Valley</strong> so as to make it appear as if there is a <strong>high</strong> success rate without lying.,some|most|right,9|9|3|3|3,In this exam,of the students got,of the questions,.,12,"%{""instances"" => [%{""n_col"" => 12, ""rows"" => [9, 9, 3, 3, 3]}], ""number"" => 12, ""sequence"" => [""BCCCC"", ""BBCCC""], ""truth_table"" => []}",Thu Jan 30 2020 16:22:44 GMT+0000 (Greenwich Mean Time),1580401364280,1|1|1|1|1|1|1|1|1|0|0|0|1|1|1|1|1|1|1|1|1|0|0|0|1|1|1|0|0|0|0|0|0|0|0|0|1|1|1|0|0|0|0|0|0|0|0|0|1|1|1|0|0|0|0|0|0|0|0|0,8.0376,training_trials,1
11718,,18192,20,all|most|some|none,all|most|some|none,right|wrong,5,,low,placeholder,Graduated High School,1580401846536,placeholder,83,female,English,5d1a4405883c4d0001e5fd84,Describe these results of <strong>Riverside</strong> so as to make it appear as if there is a <strong>low</strong> success rate without lying.,some|most|wrong,9|9|3|3|3,In this exam,of the students got,of the questions,.,12,"%{""instances"" => [%{""n_col"" => 12, ""rows"" => [9, 9, 3, 3, 3]}], ""number"" => 12, ""sequence"" => [""BCCCC"", ""BBCCC""], ""truth_table"" => []}",Thu Jan 30 2020 16:22:44 GMT+0000 (Greenwich Mean Time),1580401364280,1|1|1|1|1|1|1|1|1|0|0|0|1|1|1|1|1|1|1|1|1|0|0|0|1|1|1|0|0|0|0|0|0|0|0|0|1|1|1|0|0|0|0|0|0|0|0|0|1|1|1|0|0|0|0|0|0|0|0|0,8.0376,training_trials,2
11718,,17754,20,all|most|some|none,all|most|some|none,right|wrong,5,,high,placeholder,Graduated High School,1580401846536,placeholder,83,female,English,5d1a4405883c4d0001e5fd84,Describe these results of <strong>Green Valley</strong> so as to make it appear as if there is a <strong>high</strong> success rate without lying.,some|all|right,12|12|0|0|0,In this exam,of the students got,of the questions,.,4,"%{""instances"" => [%{""n_col"" => 12, ""rows"" => [12, 12, 0, 0, 0]}], ""number"" => 4, ""sequence"" => [""ADDDD"", ""AADDD"", ""ABDDD"", ""ACDDD""], ""truth_table"" => []}",Thu Jan 30 2020 16:22:44 GMT+0000 (Greenwich Mean Time),1580401364280,1|1|1|1|1|1|1|1|1|1|1|1|1|1|1|1|1|1|1|1|1|1|1|1|0|0|0|0|0|0|0|0|0|0|0|0|0|0|0|0|0|0|0|0|0|0|0|0|0|0|0|0|0|0|0|0|0|0|0|0,8.0376,training_trials,3
11718,,12317,20,all|most|some|none,all|most|some|none,right|wrong,5,,low,placeholder,Graduated High School,1580401846536,placeholder,83,female,English,5d1a4405883c4d0001e5fd84,Describe these results of <strong>Riverside</strong> so as to make it appear as if there is a <strong>low</strong> success rate without lying.,most|all|wrong,12|12|0|0|0,In this exam,of the students got,of the questions,.,4,"%{""instances"" => [%{""n_col"" => 12, ""rows"" => [12, 12, 0, 0, 0]}], ""number"" => 4, ""sequence"" => [""ADDDD"", ""AADDD"", ""ABDDD"", ""ACDDD""], ""truth_table"" => []}",Thu Jan 30 2020 16:22:44 GMT+0000 (Greenwich Mean Time),1580401364280,1|1|1|1|1|1|1|1|1|1|1|1|1|1|1|1|1|1|1|1|1|1|1|1|0|0|0|0|0|0|0|0|0|0|0|0|0|0|0|0|0|0|0|0|0|0|0|0|0|0|0|0|0|0|0|0|0|0|0|0,8.0376,training_trials,4
11718,,36399,20,all|most|some|none,all|most|some|none,right|wrong,5,,low,placeholder,Graduated High School,1580401846536,placeholder,83,female,English,5d1a4405883c4d0001e5fd84,Describe these results of <strong>Riverside</strong> so as to make it appear as if there is a <strong>low</strong> success rate without lying.,most|most|wrong,9|9|3|0|0,In this exam,of the students got,of the questions,.,6,"%{""instances"" => [%{""n_col"" => 12, ""rows"" => [9, 9, 3, 0, 0]}], ""number"" => 6, ""sequence"" => [""BCCCD"", ""BCCDD"", ""BBCDD"", ""BBCCD""], ""truth_table"" => []}",Thu Jan 30 2020 16:22:44 GMT+0000 (Greenwich Mean Time),1580401364280,1|1|1|1|1|1|1|1|1|0|0|0|1|1|1|1|1|1|1|1|1|0|0|0|1|1|1|0|0|0|0|0|0|0|0|0|0|0|0|0|0|0|0|0|0|0|0|0|0|0|0|0|0|0|0|0|0|0|0|0,8.0376,main_trials,1
11718,,14193,20,all|most|some|none,all|most|some|none,right|wrong,5,,high,placeholder,Graduated High School,1580401846536,placeholder,83,female,English,5d1a4405883c4d0001e5fd84,Describe these results of <strong>Green Valley</strong> so as to make it appear as if there is a <strong>high</strong> success rate without lying.,most|most|right,12|12|9|3|3,In this exam,of the students got,of the questions,.,15,"%{""instances"" => [%{""n_col"" => 12, ""rows"" => [12, 12, 9, 3, 3]}], ""number"" => 15, ""sequence"" => [""ABBBC"", ""ABBCC"", ""AABCC"", ""AABBC""], ""truth_table"" => []}",Thu Jan 30 2020 16:22:44 GMT+0000 (Greenwich Mean Time),1580401364280,1|1|1|1|1|1|1|1|1|1|1|1|1|1|1|1|1|1|1|1|1|1|1|1|1|1|1|1|1|1|1|1|1|0|0|0|1|1|1|0|0|0|0|0|0|0|0|0|1|1|1|0|0|0|0|0|0|0|0|0,8.0376,main_trials,2
11718,,7968,20,all|most|some|none,all|most|some|none,right|wrong,5,,high,placeholder,Graduated High School,1580401846536,placeholder,83,female,English,5d1a4405883c4d0001e5fd84,Describe these results of <strong>Green Valley</strong> so as to make it appear as if there is a <strong>high</strong> success rate without lying.,all|all|right,12|12|12|12|12,In this exam,of the students got,of the questions,.,20,"%{""instances"" => [%{""n_col"" => 12, ""rows"" => '\f\f\f\f\f'}], ""number"" => 20, ""sequence"" => [""AAAAA""], ""truth_table"" => []}",Thu Jan 30 2020 16:22:44 GMT+0000 (Greenwich Mean Time),1580401364280,1|1|1|1|1|1|1|1|1|1|1|1|1|1|1|1|1|1|1|1|1|1|1|1|1|1|1|1|1|1|1|1|1|1|1|1|1|1|1|1|1|1|1|1|1|1|1|1|1|1|1|1|1|1|1|1|1|1|1|1,8.0376,main_trials,3
11718,,8653,20,all|most|some|none,all|most|some|none,right|wrong,5,,low,placeholder,Graduated High School,1580401846536,placeholder,83,female,English,5d1a4405883c4d0001e5fd84,Describe these results of <strong>Riverside</strong> so as to make it appear as if there is a <strong>low</strong> success rate without lying.,most|all|wrong,12|12|0|0|0,In this exam,of the students got,of the questions,.,4,"%{""instances"" => [%{""n_col"" => 12, ""rows"" => [12, 12, 0, 0, 0]}], ""number"" => 4, ""sequence"" => [""ADDDD"", ""AADDD"", ""ABDDD"", ""ACDDD""], ""truth_table"" => []}",Thu Jan 30 2020 16:22:44 GMT+0000 (Greenwich Mean Time),1580401364280,1|1|1|1|1|1|1|1|1|1|1|1|1|1|1|1|1|1|1|1|1|1|1|1|0|0|0|0|0|0|0|0|0|0|0|0|0|0|0|0|0|0|0|0|0|0|0|0|0|0|0|0|0|0|0|0|0|0|0|0,8.0376,main_trials,4
11718,,13691,20,all|most|some|none,all|most|some|none,right|wrong,5,,low,placeholder,Graduated High School,1580401846536,placeholder,83,female,English,5d1a4405883c4d0001e5fd84,Describe these results of <strong>Riverside</strong> so as to make it appear as if there is a <strong>low</strong> success rate without lying.,some|most|wrong,9|9|9|3|3,In this exam,of the students got,of the questions,.,14,"%{""instances"" => [%{""n_col"" => 12, ""rows"" => [9, 9, 9, 3, 3]}], ""number"" => 14, ""sequence"" => [""BBBCC"", ""BBBBC""], ""truth_table"" => []}",Thu Jan 30 2020 16:22:44 GMT+0000 (Greenwich Mean Time),1580401364280,1|1|1|1|1|1|1|1|1|0|0|0|1|1|1|1|1|1|1|1|1|0|0|0|1|1|1|1|1|1|1|1|1|0|0|0|1|1|1|0|0|0|0|0|0|0|0|0|1|1|1|0|0|0|0|0|0|0|0|0,8.0376,main_trials,5
11718,,8172,20,all|most|some|none,all|most|some|none,right|wrong,5,,low,placeholder,Graduated High School,1580401846536,placeholder,83,female,English,5d1a4405883c4d0001e5fd84,Describe these results of <strong>Riverside</strong> so as to make it appear as if there is a <strong>low</strong> success rate without lying.,some|most|wrong,12|12|3|3|3,In this exam,of the students got,of the questions,.,13,"%{""instances"" => [%{""n_col"" => 12, ""rows"" => [12, 12, 3, 3, 3]}], ""number"" => 13, ""sequence"" => [""ACCCC"", ""AACCC"", ""ABCCC""], ""truth_table"" => []}",Thu Jan 30 2020 16:22:44 GMT+0000 (Greenwich Mean Time),1580401364280,1|1|1|1|1|1|1|1|1|1|1|1|1|1|1|1|1|1|1|1|1|1|1|1|1|1|1|0|0|0|0|0|0|0|0|0|1|1|1|0|0|0|0|0|0|0|0|0|1|1|1|0|0|0|0|0|0|0|0|0,8.0376,main_trials,6
11718,,11168,20,all|most|some|none,all|most|some|none,right|wrong,5,,high,placeholder,Graduated High School,1580401846536,placeholder,83,female,English,5d1a4405883c4d0001e5fd84,Describe these results of <strong>Green Valley</strong> so as to make it appear as if there is a <strong>high</strong> success rate without lying.,some|some|right,3|3|0|0|0,In this exam,of the students got,of the questions,.,2,"%{""instances"" => [%{""n_col"" => 12, ""rows"" => [3, 3, 0, 0, 0]}], ""number"" => 2, ""sequence"" => [""CDDDD"", ""CCDDD""], ""truth_table"" => []}",Thu Jan 30 2020 16:22:44 GMT+0000 (Greenwich Mean Time),1580401364280,1|1|1|0|0|0|0|0|0|0|0|0|1|1|1|0|0|0|0|0|0|0|0|0|0|0|0|0|0|0|0|0|0|0|0|0|0|0|0|0|0|0|0|0|0|0|0|0|0|0|0|0|0|0|0|0|0|0|0|0,8.0376,main_trials,7
11718,,20462,20,all|most|some|none,all|most|some|none,right|wrong,5,,high,placeholder,Graduated High School,1580401846536,placeholder,83,female,English,5d1a4405883c4d0001e5fd84,Describe these results of <strong>Green Valley</strong> so as to make it appear as if there is a <strong>high</strong> success rate without lying.,most|some|right,9|9|3|3|3,In this exam,of the students got,of the questions,.,12,"%{""instances"" => [%{""n_col"" => 12, ""rows"" => [9, 9, 3, 3, 3]}], ""number"" => 12, ""sequence"" => [""BCCCC"", ""BBCCC""], ""truth_table"" => []}",Thu Jan 30 2020 16:22:44 GMT+0000 (Greenwich Mean Time),1580401364280,1|1|1|1|1|1|1|1|1|0|0|0|1|1|1|1|1|1|1|1|1|0|0|0|1|1|1|0|0|0|0|0|0|0|0|0|1|1|1|0|0|0|0|0|0|0|0|0|1|1|1|0|0|0|0|0|0|0|0|0,8.0376,main_trials,8
11718,,17103,20,all|most|some|none,all|most|some|none,right|wrong,5,,high,placeholder,Graduated High School,1580401846536,placeholder,83,female,English,5d1a4405883c4d0001e5fd84,Describe these results of <strong>Green Valley</strong> so as to make it appear as if there is a <strong>high</strong> success rate without lying.,none|all|wrong,3|3|3|0|0,In this exam,of the students got,of the questions,.,5,"%{""instances"" => [%{""n_col"" => 12, ""rows"" => [3, 3, 3, 0, 0]}], ""number"" => 5, ""sequence"" => [""CCCDD"", ""CCCCD""], ""truth_table"" => []}",Thu Jan 30 2020 16:22:44 GMT+0000 (Greenwich Mean Time),1580401364280,1|1|1|0|0|0|0|0|0|0|0|0|1|1|1|0|0|0|0|0|0|0|0|0|1|1|1|0|0|0|0|0|0|0|0|0|0|0|0|0|0|0|0|0|0|0|0|0|0|0|0|0|0|0|0|0|0|0|0|0,8.0376,main_trials,9
11718,,9677,20,all|most|some|none,all|most|some|none,right|wrong,5,,high,placeholder,Graduated High School,1580401846536,placeholder,83,female,English,5d1a4405883c4d0001e5fd84,Describe these results of <strong>Green Valley</strong> so as to make it appear as if there is a <strong>high</strong> success rate without lying.,most|most|right,12|12|9|0|0,In this exam,of the students got,of the questions,.,8,"%{""instances"" => [%{""n_col"" => 12, ""rows"" => [12, 12, 9, 0, 0]}], ""number"" => 8, ""sequence"" => [""ABBBD"", ""ABBDD"", ""AABDD"", ""ABBBD"", ""ABBCD"", ""AABCD""], ""truth_table"" => []}",Thu Jan 30 2020 16:22:44 GMT+0000 (Greenwich Mean Time),1580401364280,1|1|1|1|1|1|1|1|1|1|1|1|1|1|1|1|1|1|1|1|1|1|1|1|1|1|1|1|1|1|1|1|1|0|0|0|0|0|0|0|0|0|0|0|0|0|0|0|0|0|0|0|0|0|0|0|0|0|0|0,8.0376,main_trials,10
11718,,20316,20,all|most|some|none,all|most|some|none,right|wrong,5,,low,placeholder,Graduated High School,1580401846536,placeholder,83,female,English,5d1a4405883c4d0001e5fd84,Describe these results of <strong>Riverside</strong> so as to make it appear as if there is a <strong>low</strong> success rate without lying.,none|all|right,9|9|9|0|0,In this exam,of the students got,of the questions,.,7,"%{""instances"" => [%{""n_col"" => 12, ""rows"" => [9, 9, 9, 0, 0]}], ""number"" => 7, ""sequence"" => [""BBBDD"", ""BBBBD"", ""BBBCD""], ""truth_table"" => []}",Thu Jan 30 2020 16:22:44 GMT+0000 (Greenwich Mean Time),1580401364280,1|1|1|1|1|1|1|1|1|0|0|0|1|1|1|1|1|1|1|1|1|0|0|0|1|1|1|1|1|1|1|1|1|0|0|0|0|0|0|0|0|0|0|0|0|0|0|0|0|0|0|0|0|0|0|0|0|0|0|0,8.0376,main_trials,11
11718,,11987,20,all|most|some|none,all|most|some|none,right|wrong,5,,low,placeholder,Graduated High School,1580401846536,placeholder,83,female,English,5d1a4405883c4d0001e5fd84,Describe these results of <strong>Riverside</strong> so as to make it appear as if there is a <strong>low</strong> success rate without lying.,none|all|right,12|12|12|9|9,In this exam,of the students got,of the questions,.,19,"%{""instances"" => [%{""n_col"" => 12, ""rows"" => '\f\f\f\t\t'}], ""number"" => 19, ""sequence"" => [""AAABB"", ""AAAAB""], ""truth_table"" => []}",Thu Jan 30 2020 16:22:44 GMT+0000 (Greenwich Mean Time),1580401364280,1|1|1|1|1|1|1|1|1|1|1|1|1|1|1|1|1|1|1|1|1|1|1|1|1|1|1|1|1|1|1|1|1|1|1|1|1|1|1|1|1|1|1|1|1|0|0|0|1|1|1|1|1|1|1|1|1|0|0|0,8.0376,main_trials,12
11718,,10264,20,all|most|some|none,all|most|some|none,right|wrong,5,,low,placeholder,Graduated High School,1580401846536,placeholder,83,female,English,5d1a4405883c4d0001e5fd84,Describe these results of <strong>Riverside</strong> so as to make it appear as if there is a <strong>low</strong> success rate without lying.,none|all|right,12|12|12|3|3,In this exam,of the students got,of the questions,.,16,"%{""instances"" => [%{""n_col"" => 12, ""rows"" => [12, 12, 12, 3, 3]}], ""number"" => 16, ""sequence"" => [""AAACC"", ""AAAAC"", ""AAABC""], ""truth_table"" => []}",Thu Jan 30 2020 16:22:44 GMT+0000 (Greenwich Mean Time),1580401364280,1|1|1|1|1|1|1|1|1|1|1|1|1|1|1|1|1|1|1|1|1|1|1|1|1|1|1|1|1|1|1|1|1|1|1|1|1|1|1|0|0|0|0|0|0|0|0|0|1|1|1|0|0|0|0|0|0|0|0|0,8.0376,main_trials,13
11718,,9121,20,all|most|some|none,all|most|some|none,right|wrong,5,,high,placeholder,Graduated High School,1580401846536,placeholder,83,female,English,5d1a4405883c4d0001e5fd84,Describe these results of <strong>Green Valley</strong> so as to make it appear as if there is a <strong>high</strong> success rate without lying.,all|most|right,9|9|9|9|9,In this exam,of the students got,of the questions,.,17,"%{""instances"" => [%{""n_col"" => 12, ""rows"" => '\t\t\t\t\t'}], ""number"" => 17, ""sequence"" => [""BBBBB""], ""truth_table"" => []}",Thu Jan 30 2020 16:22:44 GMT+0000 (Greenwich Mean Time),1580401364280,1|1|1|1|1|1|1|1|1|0|0|0|1|1|1|1|1|1|1|1|1|0|0|0|1|1|1|1|1|1|1|1|1|0|0|0|1|1|1|1|1|1|1|1|1|0|0|0|1|1|1|1|1|1|1|1|1|0|0|0,8.0376,main_trials,14
11718,,7893,20,all|most|some|none,all|most|some|none,right|wrong,5,,low,placeholder,Graduated High School,1580401846536,placeholder,83,female,English,5d1a4405883c4d0001e5fd84,Describe these results of <strong>Riverside</strong> so as to make it appear as if there is a <strong>low</strong> success rate without lying.,none|all|right,12|12|9|9|9,In this exam,of the students got,of the questions,.,18,"%{""instances"" => [%{""n_col"" => 12, ""rows"" => '\f\f\t\t\t'}], ""number"" => 18, ""sequence"" => [""ABBBB"", ""AABBB""], ""truth_table"" => []}",Thu Jan 30 2020 16:22:44 GMT+0000 (Greenwich Mean Time),1580401364280,1|1|1|1|1|1|1|1|1|1|1|1|1|1|1|1|1|1|1|1|1|1|1|1|1|1|1|1|1|1|1|1|1|0|0|0|1|1|1|1|1|1|1|1|1|0|0|0|1|1|1|1|1|1|1|1|1|0|0|0,8.0376,main_trials,15
11718,,8504,20,all|most|some|none,all|most|some|none,right|wrong,5,,high,placeholder,Graduated High School,1580401846536,placeholder,83,female,English,5d1a4405883c4d0001e5fd84,Describe these results of <strong>Green Valley</strong> so as to make it appear as if there is a <strong>high</strong> success rate without lying.,most|all|right,12|12|12|0|0,In this exam,of the students got,of the questions,.,9,"%{""instances"" => [%{""n_col"" => 12, ""rows"" => [12, 12, 12, 0, 0]}], ""number"" => 9, ""sequence"" => [""AAADD"", ""AAAAD"", ""AAABD"", ""AAACD""], ""truth_table"" => []}",Thu Jan 30 2020 16:22:44 GMT+0000 (Greenwich Mean Time),1580401364280,1|1|1|1|1|1|1|1|1|1|1|1|1|1|1|1|1|1|1|1|1|1|1|1|1|1|1|1|1|1|1|1|1|1|1|1|0|0|0|0|0|0|0|0|0|0|0|0|0|0|0|0|0|0|0|0|0|0|0|0,8.0376,main_trials,16
11718,,44096,20,all|most|some|none,all|most|some|none,right|wrong,5,,low,placeholder,Graduated High School,1580401846536,placeholder,83,female,English,5d1a4405883c4d0001e5fd84,Describe these results of <strong>Riverside</strong> so as to make it appear as if there is a <strong>low</strong> success rate without lying.,most|most|wrong,3|3|3|3|3,In this exam,of the students got,of the questions,.,11,"%{""instances"" => [%{""n_col"" => 12, ""rows"" => [3, 3, 3, 3, 3]}], ""number"" => 11, ""sequence"" => [""CCCCC""], ""truth_table"" => []}",Thu Jan 30 2020 16:22:44 GMT+0000 (Greenwich Mean Time),1580401364280,1|1|1|0|0|0|0|0|0|0|0|0|1|1|1|0|0|0|0|0|0|0|0|0|1|1|1|0|0|0|0|0|0|0|0|0|1|1|1|0|0|0|0|0|0|0|0|0|1|1|1|0|0|0|0|0|0|0|0|0,8.0376,main_trials,17
11718,,14934,20,all|most|some|none,all|most|some|none,right|wrong,5,,high,placeholder,Graduated High School,1580401846536,placeholder,83,female,English,5d1a4405883c4d0001e5fd84,Describe these results of <strong>Green Valley</strong> so as to make it appear as if there is a <strong>high</strong> success rate without lying.,some|all|right,12|12|3|0|0,In this exam,of the students got,of the questions,.,1,"%{""instances"" => [%{""n_col"" => 12, ""rows"" => [12, 12, 3, 0, 0]}], ""number"" => 1, ""sequence"" => [""ACCCD"", ""ACCDD"", ""AACDD"", ""AACCD"", ""ABCDD"", ""ABCCD""], ""truth_table"" => []}",Thu Jan 30 2020 16:22:44 GMT+0000 (Greenwich Mean Time),1580401364280,1|1|1|1|1|1|1|1|1|1|1|1|1|1|1|1|1|1|1|1|1|1|1|1|1|1|1|0|0|0|0|0|0|0|0|0|0|0|0|0|0|0|0|0|0|0|0|0|0|0|0|0|0|0|0|0|0|0|0|0,8.0376,main_trials,18
11718,,12379,20,all|most|some|none,all|most|some|none,right|wrong,5,,high,placeholder,Graduated High School,1580401846536,placeholder,83,female,English,5d1a4405883c4d0001e5fd84,Describe these results of <strong>Green Valley</strong> so as to make it appear as if there is a <strong>high</strong> success rate without lying.,some|most|right,9|9|0|0|0,In this exam,of the students got,of the questions,.,3,"%{""instances"" => [%{""n_col"" => 12, ""rows"" => [9, 9, 0, 0, 0]}], ""number"" => 3, ""sequence"" => [""BDDDD"", ""BBDDD"", ""BCDDD""], ""truth_table"" => []}",Thu Jan 30 2020 16:22:44 GMT+0000 (Greenwich Mean Time),1580401364280,1|1|1|1|1|1|1|1|1|0|0|0|1|1|1|1|1|1|1|1|1|0|0|0|0|0|0|0|0|0|0|0|0|0|0|0|0|0|0|0|0|0|0|0|0|0|0|0|0|0|0|0|0|0|0|0|0|0|0|0,8.0376,main_trials,19
11718,,7918,20,all|most|some|none,all|most|some|none,right|wrong,5,,low,placeholder,Graduated High School,1580401846536,placeholder,83,female,English,5d1a4405883c4d0001e5fd84,Describe these results of <strong>Riverside</strong> so as to make it appear as if there is a <strong>low</strong> success rate without lying.,all|all|wrong,0|0|0|0|0,In this exam,of the students got,of the questions,.,10,"%{""instances"" => [%{""n_col"" => 12, ""rows"" => [0, 0, 0, 0, 0]}], ""number"" => 10, ""sequence"" => [""DDDDD""], ""truth_table"" => []}",Thu Jan 30 2020 16:22:44 GMT+0000 (Greenwich Mean Time),1580401364280,0|0|0|0|0|0|0|0|0|0|0|0|0|0|0|0|0|0|0|0|0|0|0|0|0|0|0|0|0|0|0|0|0|0|0|0|0|0|0|0|0|0|0|0|0|0|0|0|0|0|0|0|0|0|0|0|0|0|0|0,8.0376,main_trials,20
11715,,70073,19,all|most|some|none,all|most|some|none,right|wrong,5,,low,placeholder,Graduated High School,1580401808801,placeholder,83,female,English,5c95296dd49b19001af7eead,Describe these results of <strong>Riverside</strong> so as to make it appear as if there is a <strong>low</strong> success rate without lying.,some|most|right,9|9|3|3|3,In this exam,of the students got,of the questions,.,12,"%{""instances"" => [%{""n_col"" => 12, ""rows"" => [9, 9, 3, 3, 3]}], ""number"" => 12, ""sequence"" => [""BCCCC"", ""BBCCC""], ""truth_table"" => []}",Thu Jan 30 2020 16:20:26 GMT+0000 (Greenwich Mean Time),1580401226692,1|1|1|1|1|1|1|1|1|0|0|0|1|1|1|1|1|1|1|1|1|0|0|0|1|1|1|0|0|0|0|0|0|0|0|0|1|1|1|0|0|0|0|0|0|0|0|0|1|1|1|0|0|0|0|0|0|0|0|0,9.701816666666666,training_trials,1
11715,,14525,19,all|most|some|none,all|most|some|none,right|wrong,5,,low,placeholder,Graduated High School,1580401808801,placeholder,83,female,English,5c95296dd49b19001af7eead,Describe these results of <strong>Riverside</strong> so as to make it appear as if there is a <strong>low</strong> success rate without lying.,most|most|wrong,12|12|0|0|0,In this exam,of the students got,of the questions,.,4,"%{""instances"" => [%{""n_col"" => 12, ""rows"" => [12, 12, 0, 0, 0]}], ""number"" => 4, ""sequence"" => [""ADDDD"", ""AADDD"", ""ABDDD"", ""ACDDD""], ""truth_table"" => []}",Thu Jan 30 2020 16:20:26 GMT+0000 (Greenwich Mean Time),1580401226692,1|1|1|1|1|1|1|1|1|1|1|1|1|1|1|1|1|1|1|1|1|1|1|1|0|0|0|0|0|0|0|0|0|0|0|0|0|0|0|0|0|0|0|0|0|0|0|0|0|0|0|0|0|0|0|0|0|0|0|0,9.701816666666666,training_trials,2
11715,,9665,19,all|most|some|none,all|most|some|none,right|wrong,5,,high,placeholder,Graduated High School,1580401808801,placeholder,83,female,English,5c95296dd49b19001af7eead,Describe these results of <strong>Green Valley</strong> so as to make it appear as if there is a <strong>high</strong> success rate without lying.,some|most|right,12|12|0|0|0,In this exam,of the students got,of the questions,.,4,"%{""instances"" => [%{""n_col"" => 12, ""rows"" => [12, 12, 0, 0, 0]}], ""number"" => 4, ""sequence"" => [""ADDDD"", ""AADDD"", ""ABDDD"", ""ACDDD""], ""truth_table"" => []}",Thu Jan 30 2020 16:20:26 GMT+0000 (Greenwich Mean Time),1580401226692,1|1|1|1|1|1|1|1|1|1|1|1|1|1|1|1|1|1|1|1|1|1|1|1|0|0|0|0|0|0|0|0|0|0|0|0|0|0|0|0|0|0|0|0|0|0|0|0|0|0|0|0|0|0|0|0|0|0|0|0,9.701816666666666,training_trials,3
11715,,14156,19,all|most|some|none,all|most|some|none,right|wrong,5,,high,placeholder,Graduated High School,1580401808801,placeholder,83,female,English,5c95296dd49b19001af7eead,Describe these results of <strong>Green Valley</strong> so as to make it appear as if there is a <strong>high</strong> success rate without lying.,some|most|right,9|9|3|3|3,In this exam,of the students got,of the questions,.,12,"%{""instances"" => [%{""n_col"" => 12, ""rows"" => [9, 9, 3, 3, 3]}], ""number"" => 12, ""sequence"" => [""BCCCC"", ""BBCCC""], ""truth_table"" => []}",Thu Jan 30 2020 16:20:26 GMT+0000 (Greenwich Mean Time),1580401226692,1|1|1|1|1|1|1|1|1|0|0|0|1|1|1|1|1|1|1|1|1|0|0|0|1|1|1|0|0|0|0|0|0|0|0|0|1|1|1|0|0|0|0|0|0|0|0|0|1|1|1|0|0|0|0|0|0|0|0|0,9.701816666666666,training_trials,4
11715,,17390,19,all|most|some|none,all|most|some|none,right|wrong,5,,low,placeholder,Graduated High School,1580401808801,placeholder,83,female,English,5c95296dd49b19001af7eead,Describe these results of <strong>Riverside</strong> so as to make it appear as if there is a <strong>low</strong> success rate without lying.,most|most|wrong,12|12|3|0|0,In this exam,of the students got,of the questions,.,1,"%{""instances"" => [%{""n_col"" => 12, ""rows"" => [12, 12, 3, 0, 0]}], ""number"" => 1, ""sequence"" => [""ACCCD"", ""ACCDD"", ""AACDD"", ""AACCD"", ""ABCDD"", ""ABCCD""], ""truth_table"" => []}",Thu Jan 30 2020 16:20:26 GMT+0000 (Greenwich Mean Time),1580401226692,1|1|1|1|1|1|1|1|1|1|1|1|1|1|1|1|1|1|1|1|1|1|1|1|1|1|1|0|0|0|0|0|0|0|0|0|0|0|0|0|0|0|0|0|0|0|0|0|0|0|0|0|0|0|0|0|0|0|0|0,9.701816666666666,main_trials,1
11715,,21221,19,all|most|some|none,all|most|some|none,right|wrong,5,,high,placeholder,Graduated High School,1580401808801,placeholder,83,female,English,5c95296dd49b19001af7eead,Describe these results of <strong>Green Valley</strong> so as to make it appear as if there is a <strong>high</strong> success rate without lying.,all|some|right,3|3|3|3|3,In this exam,of the students got,of the questions,.,11,"%{""instances"" => [%{""n_col"" => 12, ""rows"" => [3, 3, 3, 3, 3]}], ""number"" => 11, ""sequence"" => [""CCCCC""], ""truth_table"" => []}",Thu Jan 30 2020 16:20:26 GMT+0000 (Greenwich Mean Time),1580401226692,1|1|1|0|0|0|0|0|0|0|0|0|1|1|1|0|0|0|0|0|0|0|0|0|1|1|1|0|0|0|0|0|0|0|0|0|1|1|1|0|0|0|0|0|0|0|0|0|1|1|1|0|0|0|0|0|0|0|0|0,9.701816666666666,main_trials,2
11715,,15021,19,all|most|some|none,all|most|some|none,right|wrong,5,,low,placeholder,Graduated High School,1580401808801,placeholder,83,female,English,5c95296dd49b19001af7eead,Describe these results of <strong>Riverside</strong> so as to make it appear as if there is a <strong>low</strong> success rate without lying.,most|most|wrong,9|9|3|3|3,In this exam,of the students got,of the questions,.,12,"%{""instances"" => [%{""n_col"" => 12, ""rows"" => [9, 9, 3, 3, 3]}], ""number"" => 12, ""sequence"" => [""BCCCC"", ""BBCCC""], ""truth_table"" => []}",Thu Jan 30 2020 16:20:26 GMT+0000 (Greenwich Mean Time),1580401226692,1|1|1|1|1|1|1|1|1|0|0|0|1|1|1|1|1|1|1|1|1|0|0|0|1|1|1|0|0|0|0|0|0|0|0|0|1|1|1|0|0|0|0|0|0|0|0|0|1|1|1|0|0|0|0|0|0|0|0|0,9.701816666666666,main_trials,3
11715,,18784,19,all|most|some|none,all|most|some|none,right|wrong,5,,high,placeholder,Graduated High School,1580401808801,placeholder,83,female,English,5c95296dd49b19001af7eead,Describe these results of <strong>Green Valley</strong> so as to make it appear as if there is a <strong>high</strong> success rate without lying.,some|some|right,3|3|0|0|0,In this exam,of the students got,of the questions,.,2,"%{""instances"" => [%{""n_col"" => 12, ""rows"" => [3, 3, 0, 0, 0]}], ""number"" => 2, ""sequence"" => [""CDDDD"", ""CCDDD""], ""truth_table"" => []}",Thu Jan 30 2020 16:20:26 GMT+0000 (Greenwich Mean Time),1580401226692,1|1|1|0|0|0|0|0|0|0|0|0|1|1|1|0|0|0|0|0|0|0|0|0|0|0|0|0|0|0|0|0|0|0|0|0|0|0|0|0|0|0|0|0|0|0|0|0|0|0|0|0|0|0|0|0|0|0|0|0,9.701816666666666,main_trials,4
11715,,18438,19,all|most|some|none,all|most|some|none,right|wrong,5,,high,placeholder,Graduated High School,1580401808801,placeholder,83,female,English,5c95296dd49b19001af7eead,Describe these results of <strong>Green Valley</strong> so as to make it appear as if there is a <strong>high</strong> success rate without lying.,most|most|right,9|9|9|3|3,In this exam,of the students got,of the questions,.,14,"%{""instances"" => [%{""n_col"" => 12, ""rows"" => [9, 9, 9, 3, 3]}], ""number"" => 14, ""sequence"" => [""BBBCC"", ""BBBBC""], ""truth_table"" => []}",Thu Jan 30 2020 16:20:26 GMT+0000 (Greenwich Mean Time),1580401226692,1|1|1|1|1|1|1|1|1|0|0|0|1|1|1|1|1|1|1|1|1|0|0|0|1|1|1|1|1|1|1|1|1|0|0|0|1|1|1|0|0|0|0|0|0|0|0|0|1|1|1|0|0|0|0|0|0|0|0|0,9.701816666666666,main_trials,5
11715,,13463,19,all|most|some|none,all|most|some|none,right|wrong,5,,high,placeholder,Graduated High School,1580401808801,placeholder,83,female,English,5c95296dd49b19001af7eead,Describe these results of <strong>Green Valley</strong> so as to make it appear as if there is a <strong>high</strong> success rate without lying.,most|all|right,12|12|12|3|3,In this exam,of the students got,of the questions,.,16,"%{""instances"" => [%{""n_col"" => 12, ""rows"" => [12, 12, 12, 3, 3]}], ""number"" => 16, ""sequence"" => [""AAACC"", ""AAAAC"", ""AAABC""], ""truth_table"" => []}",Thu Jan 30 2020 16:20:26 GMT+0000 (Greenwich Mean Time),1580401226692,1|1|1|1|1|1|1|1|1|1|1|1|1|1|1|1|1|1|1|1|1|1|1|1|1|1|1|1|1|1|1|1|1|1|1|1|1|1|1|0|0|0|0|0|0|0|0|0|1|1|1|0|0|0|0|0|0|0|0|0,9.701816666666666,main_trials,6
11715,,20994,19,all|most|some|none,all|most|some|none,right|wrong,5,,high,placeholder,Graduated High School,1580401808801,placeholder,83,female,English,5c95296dd49b19001af7eead,Describe these results of <strong>Green Valley</strong> so as to make it appear as if there is a <strong>high</strong> success rate without lying.,most|most|right,12|12|9|0|0,In this exam,of the students got,of the questions,.,8,"%{""instances"" => [%{""n_col"" => 12, ""rows"" => [12, 12, 9, 0, 0]}], ""number"" => 8, ""sequence"" => [""ABBBD"", ""ABBDD"", ""AABDD"", ""ABBBD"", ""ABBCD"", ""AABCD""], ""truth_table"" => []}",Thu Jan 30 2020 16:20:26 GMT+0000 (Greenwich Mean Time),1580401226692,1|1|1|1|1|1|1|1|1|1|1|1|1|1|1|1|1|1|1|1|1|1|1|1|1|1|1|1|1|1|1|1|1|0|0|0|0|0|0|0|0|0|0|0|0|0|0|0|0|0|0|0|0|0|0|0|0|0|0|0,9.701816666666666,main_trials,7
11715,,7972,19,all|most|some|none,all|most|some|none,right|wrong,5,,high,placeholder,Graduated High School,1580401808801,placeholder,83,female,English,5c95296dd49b19001af7eead,Describe these results of <strong>Green Valley</strong> so as to make it appear as if there is a <strong>high</strong> success rate without lying.,some|most|right,9|9|0|0|0,In this exam,of the students got,of the questions,.,3,"%{""instances"" => [%{""n_col"" => 12, ""rows"" => [9, 9, 0, 0, 0]}], ""number"" => 3, ""sequence"" => [""BDDDD"", ""BBDDD"", ""BCDDD""], ""truth_table"" => []}",Thu Jan 30 2020 16:20:26 GMT+0000 (Greenwich Mean Time),1580401226692,1|1|1|1|1|1|1|1|1|0|0|0|1|1|1|1|1|1|1|1|1|0|0|0|0|0|0|0|0|0|0|0|0|0|0|0|0|0|0|0|0|0|0|0|0|0|0|0|0|0|0|0|0|0|0|0|0|0|0|0,9.701816666666666,main_trials,8
11715,,7420,19,all|most|some|none,all|most|some|none,right|wrong,5,,low,placeholder,Graduated High School,1580401808801,placeholder,83,female,English,5c95296dd49b19001af7eead,Describe these results of <strong>Riverside</strong> so as to make it appear as if there is a <strong>low</strong> success rate without lying.,some|all|right,12|12|0|0|0,In this exam,of the students got,of the questions,.,4,"%{""instances"" => [%{""n_col"" => 12, ""rows"" => [12, 12, 0, 0, 0]}], ""number"" => 4, ""sequence"" => [""ADDDD"", ""AADDD"", ""ABDDD"", ""ACDDD""], ""truth_table"" => []}",Thu Jan 30 2020 16:20:26 GMT+0000 (Greenwich Mean Time),1580401226692,1|1|1|1|1|1|1|1|1|1|1|1|1|1|1|1|1|1|1|1|1|1|1|1|0|0|0|0|0|0|0|0|0|0|0|0|0|0|0|0|0|0|0|0|0|0|0|0|0|0|0|0|0|0|0|0|0|0|0|0,9.701816666666666,main_trials,9
11715,,64234,19,all|most|some|none,all|most|some|none,right|wrong,5,,high,placeholder,Graduated High School,1580401808801,placeholder,83,female,English,5c95296dd49b19001af7eead,Describe these results of <strong>Green Valley</strong> so as to make it appear as if there is a <strong>high</strong> success rate without lying.,none|some|wrong,0|0|0|0|0,In this exam,of the students got,of the questions,.,10,"%{""instances"" => [%{""n_col"" => 12, ""rows"" => [0, 0, 0, 0, 0]}], ""number"" => 10, ""sequence"" => [""DDDDD""], ""truth_table"" => []}",Thu Jan 30 2020 16:20:26 GMT+0000 (Greenwich Mean Time),1580401226692,0|0|0|0|0|0|0|0|0|0|0|0|0|0|0|0|0|0|0|0|0|0|0|0|0|0|0|0|0|0|0|0|0|0|0|0|0|0|0|0|0|0|0|0|0|0|0|0|0|0|0|0|0|0|0|0|0|0|0|0,9.701816666666666,main_trials,10
11715,,5926,19,all|most|some|none,all|most|some|none,right|wrong,5,,high,placeholder,Graduated High School,1580401808801,placeholder,83,female,English,5c95296dd49b19001af7eead,Describe these results of <strong>Green Valley</strong> so as to make it appear as if there is a <strong>high</strong> success rate without lying.,most|all|right,12|12|12|0|0,In this exam,of the students got,of the questions,.,9,"%{""instances"" => [%{""n_col"" => 12, ""rows"" => [12, 12, 12, 0, 0]}], ""number"" => 9, ""sequence"" => [""AAADD"", ""AAAAD"", ""AAABD"", ""AAACD""], ""truth_table"" => []}",Thu Jan 30 2020 16:20:26 GMT+0000 (Greenwich Mean Time),1580401226692,1|1|1|1|1|1|1|1|1|1|1|1|1|1|1|1|1|1|1|1|1|1|1|1|1|1|1|1|1|1|1|1|1|1|1|1|0|0|0|0|0|0|0|0|0|0|0|0|0|0|0|0|0|0|0|0|0|0|0|0,9.701816666666666,main_trials,11
11715,,17335,19,all|most|some|none,all|most|some|none,right|wrong,5,,low,placeholder,Graduated High School,1580401808801,placeholder,83,female,English,5c95296dd49b19001af7eead,Describe these results of <strong>Riverside</strong> so as to make it appear as if there is a <strong>low</strong> success rate without lying.,most|most|wrong,12|12|3|3|3,In this exam,of the students got,of the questions,.,13,"%{""instances"" => [%{""n_col"" => 12, ""rows"" => [12, 12, 3, 3, 3]}], ""number"" => 13, ""sequence"" => [""ACCCC"", ""AACCC"", ""ABCCC""], ""truth_table"" => []}",Thu Jan 30 2020 16:20:26 GMT+0000 (Greenwich Mean Time),1580401226692,1|1|1|1|1|1|1|1|1|1|1|1|1|1|1|1|1|1|1|1|1|1|1|1|1|1|1|0|0|0|0|0|0|0|0|0|1|1|1|0|0|0|0|0|0|0|0|0|1|1|1|0|0|0|0|0|0|0|0|0,9.701816666666666,main_trials,12
11715,,39084,19,all|most|some|none,all|most|some|none,right|wrong,5,,low,placeholder,Graduated High School,1580401808801,placeholder,83,female,English,5c95296dd49b19001af7eead,Describe these results of <strong>Riverside</strong> so as to make it appear as if there is a <strong>low</strong> success rate without lying.,all|none|wrong,12|12|12|12|12,In this exam,of the students got,of the questions,.,20,"%{""instances"" => [%{""n_col"" => 12, ""rows"" => '\f\f\f\f\f'}], ""number"" => 20, ""sequence"" => [""AAAAA""], ""truth_table"" => []}",Thu Jan 30 2020 16:20:26 GMT+0000 (Greenwich Mean Time),1580401226692,1|1|1|1|1|1|1|1|1|1|1|1|1|1|1|1|1|1|1|1|1|1|1|1|1|1|1|1|1|1|1|1|1|1|1|1|1|1|1|1|1|1|1|1|1|1|1|1|1|1|1|1|1|1|1|1|1|1|1|1,9.701816666666666,main_trials,13
11715,,20909,19,all|most|some|none,all|most|some|none,right|wrong,5,,low,placeholder,Graduated High School,1580401808801,placeholder,83,female,English,5c95296dd49b19001af7eead,Describe these results of <strong>Riverside</strong> so as to make it appear as if there is a <strong>low</strong> success rate without lying.,most|some|wrong,12|12|9|9|9,In this exam,of the students got,of the questions,.,18,"%{""instances"" => [%{""n_col"" => 12, ""rows"" => '\f\f\t\t\t'}], ""number"" => 18, ""sequence"" => [""ABBBB"", ""AABBB""], ""truth_table"" => []}",Thu Jan 30 2020 16:20:26 GMT+0000 (Greenwich Mean Time),1580401226692,1|1|1|1|1|1|1|1|1|1|1|1|1|1|1|1|1|1|1|1|1|1|1|1|1|1|1|1|1|1|1|1|1|0|0|0|1|1|1|1|1|1|1|1|1|0|0|0|1|1|1|1|1|1|1|1|1|0|0|0,9.701816666666666,main_trials,14
11715,,13121,19,all|most|some|none,all|most|some|none,right|wrong,5,,low,placeholder,Graduated High School,1580401808801,placeholder,83,female,English,5c95296dd49b19001af7eead,Describe these results of <strong>Riverside</strong> so as to make it appear as if there is a <strong>low</strong> success rate without lying.,some|all|wrong,3|3|3|0|0,In this exam,of the students got,of the questions,.,5,"%{""instances"" => [%{""n_col"" => 12, ""rows"" => [3, 3, 3, 0, 0]}], ""number"" => 5, ""sequence"" => [""CCCDD"", ""CCCCD""], ""truth_table"" => []}",Thu Jan 30 2020 16:20:26 GMT+0000 (Greenwich Mean Time),1580401226692,1|1|1|0|0|0|0|0|0|0|0|0|1|1|1|0|0|0|0|0|0|0|0|0|1|1|1|0|0|0|0|0|0|0|0|0|0|0|0|0|0|0|0|0|0|0|0|0|0|0|0|0|0|0|0|0|0|0|0|0,9.701816666666666,main_trials,15
11715,,11458,19,all|most|some|none,all|most|some|none,right|wrong,5,,low,placeholder,Graduated High School,1580401808801,placeholder,83,female,English,5c95296dd49b19001af7eead,Describe these results of <strong>Riverside</strong> so as to make it appear as if there is a <strong>low</strong> success rate without lying.,most|most|wrong,9|9|3|0|0,In this exam,of the students got,of the questions,.,6,"%{""instances"" => [%{""n_col"" => 12, ""rows"" => [9, 9, 3, 0, 0]}], ""number"" => 6, ""sequence"" => [""BCCCD"", ""BCCDD"", ""BBCDD"", ""BBCCD""], ""truth_table"" => []}",Thu Jan 30 2020 16:20:26 GMT+0000 (Greenwich Mean Time),1580401226692,1|1|1|1|1|1|1|1|1|0|0|0|1|1|1|1|1|1|1|1|1|0|0|0|1|1|1|0|0|0|0|0|0|0|0|0|0|0|0|0|0|0|0|0|0|0|0|0|0|0|0|0|0|0|0|0|0|0|0|0,9.701816666666666,main_trials,16
11715,,14253,19,all|most|some|none,all|most|some|none,right|wrong,5,,high,placeholder,Graduated High School,1580401808801,placeholder,83,female,English,5c95296dd49b19001af7eead,Describe these results of <strong>Green Valley</strong> so as to make it appear as if there is a <strong>high</strong> success rate without lying.,most|all|right,12|12|12|9|9,In this exam,of the students got,of the questions,.,19,"%{""instances"" => [%{""n_col"" => 12, ""rows"" => '\f\f\f\t\t'}], ""number"" => 19, ""sequence"" => [""AAABB"", ""AAAAB""], ""truth_table"" => []}",Thu Jan 30 2020 16:20:26 GMT+0000 (Greenwich Mean Time),1580401226692,1|1|1|1|1|1|1|1|1|1|1|1|1|1|1|1|1|1|1|1|1|1|1|1|1|1|1|1|1|1|1|1|1|1|1|1|1|1|1|1|1|1|1|1|1|0|0|0|1|1|1|1|1|1|1|1|1|0|0|0,9.701816666666666,main_trials,17
11715,,13022,19,all|most|some|none,all|most|some|none,right|wrong,5,,low,placeholder,Graduated High School,1580401808801,placeholder,83,female,English,5c95296dd49b19001af7eead,Describe these results of <strong>Riverside</strong> so as to make it appear as if there is a <strong>low</strong> success rate without lying.,all|some|wrong,9|9|9|0|0,In this exam,of the students got,of the questions,.,7,"%{""instances"" => [%{""n_col"" => 12, ""rows"" => [9, 9, 9, 0, 0]}], ""number"" => 7, ""sequence"" => [""BBBDD"", ""BBBBD"", ""BBBCD""], ""truth_table"" => []}",Thu Jan 30 2020 16:20:26 GMT+0000 (Greenwich Mean Time),1580401226692,1|1|1|1|1|1|1|1|1|0|0|0|1|1|1|1|1|1|1|1|1|0|0|0|1|1|1|1|1|1|1|1|1|0|0|0|0|0|0|0|0|0|0|0|0|0|0|0|0|0|0|0|0|0|0|0|0|0|0|0,9.701816666666666,main_trials,18
11715,,20838,19,all|most|some|none,all|most|some|none,right|wrong,5,,low,placeholder,Graduated High School,1580401808801,placeholder,83,female,English,5c95296dd49b19001af7eead,Describe these results of <strong>Riverside</strong> so as to make it appear as if there is a <strong>low</strong> success rate without lying.,none|all|right,9|9|9|9|9,In this exam,of the students got,of the questions,.,17,"%{""instances"" => [%{""n_col"" => 12, ""rows"" => '\t\t\t\t\t'}], ""number"" => 17, ""sequence"" => [""BBBBB""], ""truth_table"" => []}",Thu Jan 30 2020 16:20:26 GMT+0000 (Greenwich Mean Time),1580401226692,1|1|1|1|1|1|1|1|1|0|0|0|1|1|1|1|1|1|1|1|1|0|0|0|1|1|1|1|1|1|1|1|1|0|0|0|1|1|1|1|1|1|1|1|1|0|0|0|1|1|1|1|1|1|1|1|1|0|0|0,9.701816666666666,main_trials,19
11715,,8139,19,all|most|some|none,all|most|some|none,right|wrong,5,,high,placeholder,Graduated High School,1580401808801,placeholder,83,female,English,5c95296dd49b19001af7eead,Describe these results of <strong>Green Valley</strong> so as to make it appear as if there is a <strong>high</strong> success rate without lying.,most|most|right,12|12|9|3|3,In this exam,of the students got,of the questions,.,15,"%{""instances"" => [%{""n_col"" => 12, ""rows"" => [12, 12, 9, 3, 3]}], ""number"" => 15, ""sequence"" => [""ABBBC"", ""ABBCC"", ""AABCC"", ""AABBC""], ""truth_table"" => []}",Thu Jan 30 2020 16:20:26 GMT+0000 (Greenwich Mean Time),1580401226692,1|1|1|1|1|1|1|1|1|1|1|1|1|1|1|1|1|1|1|1|1|1|1|1|1|1|1|1|1|1|1|1|1|0|0|0|1|1|1|0|0|0|0|0|0|0|0|0|1|1|1|0|0|0|0|0|0|0|0|0,9.701816666666666,main_trials,20
11720,,45853,21,all|most|some|none,all|most|some|none,right|wrong,5,,low,placeholder,Graduated College,1580402008221,placeholder,83,male,english,5cd71184bf7b7b0001ffb2ab,Describe these results of <strong>Riverside</strong> so as to make it appear as if there is a <strong>low</strong> success rate without lying.,none|all|wrong,9|9|3|3|3,In this exam,of the students got,of the questions,.,12,"%{""instances"" => [%{""n_col"" => 12, ""rows"" => [9, 9, 3, 3, 3]}], ""number"" => 12, ""sequence"" => [""BCCCC"", ""BBCCC""], ""truth_table"" => []}",Thu Jan 30 2020 16:26:59 GMT+0000 (Greenwich Mean Time),1580401619131,1|1|1|1|1|1|1|1|1|0|0|0|1|1|1|1|1|1|1|1|1|0|0|0|1|1|1|0|0|0|0|0|0|0|0|0|1|1|1|0|0|0|0|0|0|0|0|0|1|1|1|0|0|0|0|0|0|0|0|0,6.4848333333333334,training_trials,1
11720,,12389,21,all|most|some|none,all|most|some|none,right|wrong,5,,high,placeholder,Graduated College,1580402008221,placeholder,83,male,english,5cd71184bf7b7b0001ffb2ab,Describe these results of <strong>Green Valley</strong> so as to make it appear as if there is a <strong>high</strong> success rate without lying.,some|all|right,12|12|0|0|0,In this exam,of the students got,of the questions,.,4,"%{""instances"" => [%{""n_col"" => 12, ""rows"" => [12, 12, 0, 0, 0]}], ""number"" => 4, ""sequence"" => [""ADDDD"", ""AADDD"", ""ABDDD"", ""ACDDD""], ""truth_table"" => []}",Thu Jan 30 2020 16:26:59 GMT+0000 (Greenwich Mean Time),1580401619131,1|1|1|1|1|1|1|1|1|1|1|1|1|1|1|1|1|1|1|1|1|1|1|1|0|0|0|0|0|0|0|0|0|0|0|0|0|0|0|0|0|0|0|0|0|0|0|0|0|0|0|0|0|0|0|0|0|0|0|0,6.4848333333333334,training_trials,2
11720,,8337,21,all|most|some|none,all|most|some|none,right|wrong,5,,low,placeholder,Graduated College,1580402008221,placeholder,83,male,english,5cd71184bf7b7b0001ffb2ab,Describe these results of <strong>Riverside</strong> so as to make it appear as if there is a <strong>low</strong> success rate without lying.,some|all|right,12|12|0|0|0,In this exam,of the students got,of the questions,.,4,"%{""instances"" => [%{""n_col"" => 12, ""rows"" => [12, 12, 0, 0, 0]}], ""number"" => 4, ""sequence"" => [""ADDDD"", ""AADDD"", ""ABDDD"", ""ACDDD""], ""truth_table"" => []}",Thu Jan 30 2020 16:26:59 GMT+0000 (Greenwich Mean Time),1580401619131,1|1|1|1|1|1|1|1|1|1|1|1|1|1|1|1|1|1|1|1|1|1|1|1|0|0|0|0|0|0|0|0|0|0|0|0|0|0|0|0|0|0|0|0|0|0|0|0|0|0|0|0|0|0|0|0|0|0|0|0,6.4848333333333334,training_trials,3
11720,,26191,21,all|most|some|none,all|most|some|none,right|wrong,5,,high,placeholder,Graduated College,1580402008221,placeholder,83,male,english,5cd71184bf7b7b0001ffb2ab,Describe these results of <strong>Green Valley</strong> so as to make it appear as if there is a <strong>high</strong> success rate without lying.,all|some|right,9|9|3|3|3,In this exam,of the students got,of the questions,.,12,"%{""instances"" => [%{""n_col"" => 12, ""rows"" => [9, 9, 3, 3, 3]}], ""number"" => 12, ""sequence"" => [""BCCCC"", ""BBCCC""], ""truth_table"" => []}",Thu Jan 30 2020 16:26:59 GMT+0000 (Greenwich Mean Time),1580401619131,1|1|1|1|1|1|1|1|1|0|0|0|1|1|1|1|1|1|1|1|1|0|0|0|1|1|1|0|0|0|0|0|0|0|0|0|1|1|1|0|0|0|0|0|0|0|0|0|1|1|1|0|0|0|0|0|0|0|0|0,6.4848333333333334,training_trials,4
11720,,18401,21,all|most|some|none,all|most|some|none,right|wrong,5,,low,placeholder,Graduated College,1580402008221,placeholder,83,male,english,5cd71184bf7b7b0001ffb2ab,Describe these results of <strong>Riverside</strong> so as to make it appear as if there is a <strong>low</strong> success rate without lying.,all|some|right,3|3|0|0|0,In this exam,of the students got,of the questions,.,2,"%{""instances"" => [%{""n_col"" => 12, ""rows"" => [3, 3, 0, 0, 0]}], ""number"" => 2, ""sequence"" => [""CDDDD"", ""CCDDD""], ""truth_table"" => []}",Thu Jan 30 2020 16:26:59 GMT+0000 (Greenwich Mean Time),1580401619131,1|1|1|0|0|0|0|0|0|0|0|0|1|1|1|0|0|0|0|0|0|0|0|0|0|0|0|0|0|0|0|0|0|0|0|0|0|0|0|0|0|0|0|0|0|0|0|0|0|0|0|0|0|0|0|0|0|0|0|0,6.4848333333333334,main_trials,1
11720,,7431,21,all|most|some|none,all|most|some|none,right|wrong,5,,low,placeholder,Graduated College,1580402008221,placeholder,83,male,english,5cd71184bf7b7b0001ffb2ab,Describe these results of <strong>Riverside</strong> so as to make it appear as if there is a <strong>low</strong> success rate without lying.,some|most|right,9|9|0|0|0,In this exam,of the students got,of the questions,.,3,"%{""instances"" => [%{""n_col"" => 12, ""rows"" => [9, 9, 0, 0, 0]}], ""number"" => 3, ""sequence"" => [""BDDDD"", ""BBDDD"", ""BCDDD""], ""truth_table"" => []}",Thu Jan 30 2020 16:26:59 GMT+0000 (Greenwich Mean Time),1580401619131,1|1|1|1|1|1|1|1|1|0|0|0|1|1|1|1|1|1|1|1|1|0|0|0|0|0|0|0|0|0|0|0|0|0|0|0|0|0|0|0|0|0|0|0|0|0|0|0|0|0|0|0|0|0|0|0|0|0|0|0,6.4848333333333334,main_trials,2
11720,,8851,21,all|most|some|none,all|most|some|none,right|wrong,5,,low,placeholder,Graduated College,1580402008221,placeholder,83,male,english,5cd71184bf7b7b0001ffb2ab,Describe these results of <strong>Riverside</strong> so as to make it appear as if there is a <strong>low</strong> success rate without lying.,most|most|right,12|12|9|0|0,In this exam,of the students got,of the questions,.,8,"%{""instances"" => [%{""n_col"" => 12, ""rows"" => [12, 12, 9, 0, 0]}], ""number"" => 8, ""sequence"" => [""ABBBD"", ""ABBDD"", ""AABDD"", ""ABBBD"", ""ABBCD"", ""AABCD""], ""truth_table"" => []}",Thu Jan 30 2020 16:26:59 GMT+0000 (Greenwich Mean Time),1580401619131,1|1|1|1|1|1|1|1|1|1|1|1|1|1|1|1|1|1|1|1|1|1|1|1|1|1|1|1|1|1|1|1|1|0|0|0|0|0|0|0|0|0|0|0|0|0|0|0|0|0|0|0|0|0|0|0|0|0|0|0,6.4848333333333334,main_trials,3
11720,,9481,21,all|most|some|none,all|most|some|none,right|wrong,5,,high,placeholder,Graduated College,1580402008221,placeholder,83,male,english,5cd71184bf7b7b0001ffb2ab,Describe these results of <strong>Green Valley</strong> so as to make it appear as if there is a <strong>high</strong> success rate without lying.,some|some|right,3|3|3|0|0,In this exam,of the students got,of the questions,.,5,"%{""instances"" => [%{""n_col"" => 12, ""rows"" => [3, 3, 3, 0, 0]}], ""number"" => 5, ""sequence"" => [""CCCDD"", ""CCCCD""], ""truth_table"" => []}",Thu Jan 30 2020 16:26:59 GMT+0000 (Greenwich Mean Time),1580401619131,1|1|1|0|0|0|0|0|0|0|0|0|1|1|1|0|0|0|0|0|0|0|0|0|1|1|1|0|0|0|0|0|0|0|0|0|0|0|0|0|0|0|0|0|0|0|0|0|0|0|0|0|0|0|0|0|0|0|0|0,6.4848333333333334,main_trials,4
11720,,13360,21,all|most|some|none,all|most|some|none,right|wrong,5,,high,placeholder,Graduated College,1580402008221,placeholder,83,male,english,5cd71184bf7b7b0001ffb2ab,Describe these results of <strong>Green Valley</strong> so as to make it appear as if there is a <strong>high</strong> success rate without lying.,most|most|right,9|9|9|0|0,In this exam,of the students got,of the questions,.,7,"%{""instances"" => [%{""n_col"" => 12, ""rows"" => [9, 9, 9, 0, 0]}], ""number"" => 7, ""sequence"" => [""BBBDD"", ""BBBBD"", ""BBBCD""], ""truth_table"" => []}",Thu Jan 30 2020 16:26:59 GMT+0000 (Greenwich Mean Time),1580401619131,1|1|1|1|1|1|1|1|1|0|0|0|1|1|1|1|1|1|1|1|1|0|0|0|1|1|1|1|1|1|1|1|1|0|0|0|0|0|0|0|0|0|0|0|0|0|0|0|0|0|0|0|0|0|0|0|0|0|0|0,6.4848333333333334,main_trials,5
11720,,15304,21,all|most|some|none,all|most|some|none,right|wrong,5,,high,placeholder,Graduated College,1580402008221,placeholder,83,male,english,5cd71184bf7b7b0001ffb2ab,Describe these results of <strong>Green Valley</strong> so as to make it appear as if there is a <strong>high</strong> success rate without lying.,most|most|right,12|12|9|3|3,In this exam,of the students got,of the questions,.,15,"%{""instances"" => [%{""n_col"" => 12, ""rows"" => [12, 12, 9, 3, 3]}], ""number"" => 15, ""sequence"" => [""ABBBC"", ""ABBCC"", ""AABCC"", ""AABBC""], ""truth_table"" => []}",Thu Jan 30 2020 16:26:59 GMT+0000 (Greenwich Mean Time),1580401619131,1|1|1|1|1|1|1|1|1|1|1|1|1|1|1|1|1|1|1|1|1|1|1|1|1|1|1|1|1|1|1|1|1|0|0|0|1|1|1|0|0|0|0|0|0|0|0|0|1|1|1|0|0|0|0|0|0|0|0|0,6.4848333333333334,main_trials,6
11720,,14408,21,all|most|some|none,all|most|some|none,right|wrong,5,,low,placeholder,Graduated College,1580402008221,placeholder,83,male,english,5cd71184bf7b7b0001ffb2ab,Describe these results of <strong>Riverside</strong> so as to make it appear as if there is a <strong>low</strong> success rate without lying.,all|some|wrong,9|9|9|9|9,In this exam,of the students got,of the questions,.,17,"%{""instances"" => [%{""n_col"" => 12, ""rows"" => '\t\t\t\t\t'}], ""number"" => 17, ""sequence"" => [""BBBBB""], ""truth_table"" => []}",Thu Jan 30 2020 16:26:59 GMT+0000 (Greenwich Mean Time),1580401619131,1|1|1|1|1|1|1|1|1|0|0|0|1|1|1|1|1|1|1|1|1|0|0|0|1|1|1|1|1|1|1|1|1|0|0|0|1|1|1|1|1|1|1|1|1|0|0|0|1|1|1|1|1|1|1|1|1|0|0|0,6.4848333333333334,main_trials,7
11720,,7150,21,all|most|some|none,all|most|some|none,right|wrong,5,,high,placeholder,Graduated College,1580402008221,placeholder,83,male,english,5cd71184bf7b7b0001ffb2ab,Describe these results of <strong>Green Valley</strong> so as to make it appear as if there is a <strong>high</strong> success rate without lying.,all|some|right,3|3|3|3|3,In this exam,of the students got,of the questions,.,11,"%{""instances"" => [%{""n_col"" => 12, ""rows"" => [3, 3, 3, 3, 3]}], ""number"" => 11, ""sequence"" => [""CCCCC""], ""truth_table"" => []}",Thu Jan 30 2020 16:26:59 GMT+0000 (Greenwich Mean Time),1580401619131,1|1|1|0|0|0|0|0|0|0|0|0|1|1|1|0|0|0|0|0|0|0|0|0|1|1|1|0|0|0|0|0|0|0|0|0|1|1|1|0|0|0|0|0|0|0|0|0|1|1|1|0|0|0|0|0|0|0|0|0,6.4848333333333334,main_trials,8
11720,,6735,21,all|most|some|none,all|most|some|none,right|wrong,5,,high,placeholder,Graduated College,1580402008221,placeholder,83,male,english,5cd71184bf7b7b0001ffb2ab,Describe these results of <strong>Green Valley</strong> so as to make it appear as if there is a <strong>high</strong> success rate without lying.,all|some|right,12|12|12|3|3,In this exam,of the students got,of the questions,.,16,"%{""instances"" => [%{""n_col"" => 12, ""rows"" => [12, 12, 12, 3, 3]}], ""number"" => 16, ""sequence"" => [""AAACC"", ""AAAAC"", ""AAABC""], ""truth_table"" => []}",Thu Jan 30 2020 16:26:59 GMT+0000 (Greenwich Mean Time),1580401619131,1|1|1|1|1|1|1|1|1|1|1|1|1|1|1|1|1|1|1|1|1|1|1|1|1|1|1|1|1|1|1|1|1|1|1|1|1|1|1|0|0|0|0|0|0|0|0|0|1|1|1|0|0|0|0|0|0|0|0|0,6.4848333333333334,main_trials,9
11720,,12217,21,all|most|some|none,all|most|some|none,right|wrong,5,,low,placeholder,Graduated College,1580402008221,placeholder,83,male,english,5cd71184bf7b7b0001ffb2ab,Describe these results of <strong>Riverside</strong> so as to make it appear as if there is a <strong>low</strong> success rate without lying.,some|some|wrong,12|12|12|9|9,In this exam,of the students got,of the questions,.,19,"%{""instances"" => [%{""n_col"" => 12, ""rows"" => '\f\f\f\t\t'}], ""number"" => 19, ""sequence"" => [""AAABB"", ""AAAAB""], ""truth_table"" => []}",Thu Jan 30 2020 16:26:59 GMT+0000 (Greenwich Mean Time),1580401619131,1|1|1|1|1|1|1|1|1|1|1|1|1|1|1|1|1|1|1|1|1|1|1|1|1|1|1|1|1|1|1|1|1|1|1|1|1|1|1|1|1|1|1|1|1|0|0|0|1|1|1|1|1|1|1|1|1|0|0|0,6.4848333333333334,main_trials,10
11720,,13889,21,all|most|some|none,all|most|some|none,right|wrong,5,,low,placeholder,Graduated College,1580402008221,placeholder,83,male,english,5cd71184bf7b7b0001ffb2ab,Describe these results of <strong>Riverside</strong> so as to make it appear as if there is a <strong>low</strong> success rate without lying.,some|most|wrong,9|9|3|0|0,In this exam,of the students got,of the questions,.,6,"%{""instances"" => [%{""n_col"" => 12, ""rows"" => [9, 9, 3, 0, 0]}], ""number"" => 6, ""sequence"" => [""BCCCD"", ""BCCDD"", ""BBCDD"", ""BBCCD""], ""truth_table"" => []}",Thu Jan 30 2020 16:26:59 GMT+0000 (Greenwich Mean Time),1580401619131,1|1|1|1|1|1|1|1|1|0|0|0|1|1|1|1|1|1|1|1|1|0|0|0|1|1|1|0|0|0|0|0|0|0|0|0|0|0|0|0|0|0|0|0|0|0|0|0|0|0|0|0|0|0|0|0|0|0|0|0,6.4848333333333334,main_trials,11
11720,,11370,21,all|most|some|none,all|most|some|none,right|wrong,5,,high,placeholder,Graduated College,1580402008221,placeholder,83,male,english,5cd71184bf7b7b0001ffb2ab,Describe these results of <strong>Green Valley</strong> so as to make it appear as if there is a <strong>high</strong> success rate without lying.,some|all|right,12|12|0|0|0,In this exam,of the students got,of the questions,.,4,"%{""instances"" => [%{""n_col"" => 12, ""rows"" => [12, 12, 0, 0, 0]}], ""number"" => 4, ""sequence"" => [""ADDDD"", ""AADDD"", ""ABDDD"", ""ACDDD""], ""truth_table"" => []}",Thu Jan 30 2020 16:26:59 GMT+0000 (Greenwich Mean Time),1580401619131,1|1|1|1|1|1|1|1|1|1|1|1|1|1|1|1|1|1|1|1|1|1|1|1|0|0|0|0|0|0|0|0|0|0|0|0|0|0|0|0|0|0|0|0|0|0|0|0|0|0|0|0|0|0|0|0|0|0|0|0,6.4848333333333334,main_trials,12
11720,,13500,21,all|most|some|none,all|most|some|none,right|wrong,5,,low,placeholder,Graduated College,1580402008221,placeholder,83,male,english,5cd71184bf7b7b0001ffb2ab,Describe these results of <strong>Riverside</strong> so as to make it appear as if there is a <strong>low</strong> success rate without lying.,all|all|right,12|12|12|12|12,In this exam,of the students got,of the questions,.,20,"%{""instances"" => [%{""n_col"" => 12, ""rows"" => '\f\f\f\f\f'}], ""number"" => 20, ""sequence"" => [""AAAAA""], ""truth_table"" => []}",Thu Jan 30 2020 16:26:59 GMT+0000 (Greenwich Mean Time),1580401619131,1|1|1|1|1|1|1|1|1|1|1|1|1|1|1|1|1|1|1|1|1|1|1|1|1|1|1|1|1|1|1|1|1|1|1|1|1|1|1|1|1|1|1|1|1|1|1|1|1|1|1|1|1|1|1|1|1|1|1|1,6.4848333333333334,main_trials,13
11720,,22691,21,all|most|some|none,all|most|some|none,right|wrong,5,,low,placeholder,Graduated College,1580402008221,placeholder,83,male,english,5cd71184bf7b7b0001ffb2ab,Describe these results of <strong>Riverside</strong> so as to make it appear as if there is a <strong>low</strong> success rate without lying.,most|most|wrong,12|12|3|0|0,In this exam,of the students got,of the questions,.,1,"%{""instances"" => [%{""n_col"" => 12, ""rows"" => [12, 12, 3, 0, 0]}], ""number"" => 1, ""sequence"" => [""ACCCD"", ""ACCDD"", ""AACDD"", ""AACCD"", ""ABCDD"", ""ABCCD""], ""truth_table"" => []}",Thu Jan 30 2020 16:26:59 GMT+0000 (Greenwich Mean Time),1580401619131,1|1|1|1|1|1|1|1|1|1|1|1|1|1|1|1|1|1|1|1|1|1|1|1|1|1|1|0|0|0|0|0|0|0|0|0|0|0|0|0|0|0|0|0|0|0|0|0|0|0|0|0|0|0|0|0|0|0|0|0,6.4848333333333334,main_trials,14
11720,,12459,21,all|most|some|none,all|most|some|none,right|wrong,5,,high,placeholder,Graduated College,1580402008221,placeholder,83,male,english,5cd71184bf7b7b0001ffb2ab,Describe these results of <strong>Green Valley</strong> so as to make it appear as if there is a <strong>high</strong> success rate without lying.,most|most|right,12|12|3|3|3,In this exam,of the students got,of the questions,.,13,"%{""instances"" => [%{""n_col"" => 12, ""rows"" => [12, 12, 3, 3, 3]}], ""number"" => 13, ""sequence"" => [""ACCCC"", ""AACCC"", ""ABCCC""], ""truth_table"" => []}",Thu Jan 30 2020 16:26:59 GMT+0000 (Greenwich Mean Time),1580401619131,1|1|1|1|1|1|1|1|1|1|1|1|1|1|1|1|1|1|1|1|1|1|1|1|1|1|1|0|0|0|0|0|0|0|0|0|1|1|1|0|0|0|0|0|0|0|0|0|1|1|1|0|0|0|0|0|0|0|0|0,6.4848333333333334,main_trials,15
11720,,7580,21,all|most|some|none,all|most|some|none,right|wrong,5,,high,placeholder,Graduated College,1580402008221,placeholder,83,male,english,5cd71184bf7b7b0001ffb2ab,Describe these results of <strong>Green Valley</strong> so as to make it appear as if there is a <strong>high</strong> success rate without lying.,all|most|right,12|12|9|9|9,In this exam,of the students got,of the questions,.,18,"%{""instances"" => [%{""n_col"" => 12, ""rows"" => '\f\f\t\t\t'}], ""number"" => 18, ""sequence"" => [""ABBBB"", ""AABBB""], ""truth_table"" => []}",Thu Jan 30 2020 16:26:59 GMT+0000 (Greenwich Mean Time),1580401619131,1|1|1|1|1|1|1|1|1|1|1|1|1|1|1|1|1|1|1|1|1|1|1|1|1|1|1|1|1|1|1|1|1|0|0|0|1|1|1|1|1|1|1|1|1|0|0|0|1|1|1|1|1|1|1|1|1|0|0|0,6.4848333333333334,main_trials,16
11720,,10699,21,all|most|some|none,all|most|some|none,right|wrong,5,,low,placeholder,Graduated College,1580402008221,placeholder,83,male,english,5cd71184bf7b7b0001ffb2ab,Describe these results of <strong>Riverside</strong> so as to make it appear as if there is a <strong>low</strong> success rate without lying.,all|all|wrong,0|0|0|0|0,In this exam,of the students got,of the questions,.,10,"%{""instances"" => [%{""n_col"" => 12, ""rows"" => [0, 0, 0, 0, 0]}], ""number"" => 10, ""sequence"" => [""DDDDD""], ""truth_table"" => []}",Thu Jan 30 2020 16:26:59 GMT+0000 (Greenwich Mean Time),1580401619131,0|0|0|0|0|0|0|0|0|0|0|0|0|0|0|0|0|0|0|0|0|0|0|0|0|0|0|0|0|0|0|0|0|0|0|0|0|0|0|0|0|0|0|0|0|0|0|0|0|0|0|0|0|0|0|0|0|0|0|0,6.4848333333333334,main_trials,17
11720,,7864,21,all|most|some|none,all|most|some|none,right|wrong,5,,low,placeholder,Graduated College,1580402008221,placeholder,83,male,english,5cd71184bf7b7b0001ffb2ab,Describe these results of <strong>Riverside</strong> so as to make it appear as if there is a <strong>low</strong> success rate without lying.,some|all|wrong,12|12|12|0|0,In this exam,of the students got,of the questions,.,9,"%{""instances"" => [%{""n_col"" => 12, ""rows"" => [12, 12, 12, 0, 0]}], ""number"" => 9, ""sequence"" => [""AAADD"", ""AAAAD"", ""AAABD"", ""AAACD""], ""truth_table"" => []}",Thu Jan 30 2020 16:26:59 GMT+0000 (Greenwich Mean Time),1580401619131,1|1|1|1|1|1|1|1|1|1|1|1|1|1|1|1|1|1|1|1|1|1|1|1|1|1|1|1|1|1|1|1|1|1|1|1|0|0|0|0|0|0|0|0|0|0|0|0|0|0|0|0|0|0|0|0|0|0|0|0,6.4848333333333334,main_trials,18
11720,,14676,21,all|most|some|none,all|most|some|none,right|wrong,5,,high,placeholder,Graduated College,1580402008221,placeholder,83,male,english,5cd71184bf7b7b0001ffb2ab,Describe these results of <strong>Green Valley</strong> so as to make it appear as if there is a <strong>high</strong> success rate without lying.,all|most|right,9|9|9|3|3,In this exam,of the students got,of the questions,.,14,"%{""instances"" => [%{""n_col"" => 12, ""rows"" => [9, 9, 9, 3, 3]}], ""number"" => 14, ""sequence"" => [""BBBCC"", ""BBBBC""], ""truth_table"" => []}",Thu Jan 30 2020 16:26:59 GMT+0000 (Greenwich Mean Time),1580401619131,1|1|1|1|1|1|1|1|1|0|0|0|1|1|1|1|1|1|1|1|1|0|0|0|1|1|1|1|1|1|1|1|1|0|0|0|1|1|1|0|0|0|0|0|0|0|0|0|1|1|1|0|0|0|0|0|0|0|0|0,6.4848333333333334,main_trials,19
11720,,10500,21,all|most|some|none,all|most|some|none,right|wrong,5,,high,placeholder,Graduated College,1580402008221,placeholder,83,male,english,5cd71184bf7b7b0001ffb2ab,Describe these results of <strong>Green Valley</strong> so as to make it appear as if there is a <strong>high</strong> success rate without lying.,all|most|right,9|9|3|3|3,In this exam,of the students got,of the questions,.,12,"%{""instances"" => [%{""n_col"" => 12, ""rows"" => [9, 9, 3, 3, 3]}], ""number"" => 12, ""sequence"" => [""BCCCC"", ""BBCCC""], ""truth_table"" => []}",Thu Jan 30 2020 16:26:59 GMT+0000 (Greenwich Mean Time),1580401619131,1|1|1|1|1|1|1|1|1|0|0|0|1|1|1|1|1|1|1|1|1|0|0|0|1|1|1|0|0|0|0|0|0|0|0|0|1|1|1|0|0|0|0|0|0|0|0|0|1|1|1|0|0|0|0|0|0|0|0|0,6.4848333333333334,main_trials,20
11723,,16355,19,all|most|some|none,all|most|some|none,right|wrong,5,,high,placeholder,Graduated High School,1580406982586,placeholder,83,male,"English, Indonesian",5c9dea4a0336360017b5e0bb,Describe these results of <strong>Green Valley</strong> so as to make it appear as if there is a <strong>high</strong> success rate without lying.,some|most|right,9|9|3|3|3,In this exam,of the students got,of the questions,.,12,"%{""instances"" => [%{""n_col"" => 12, ""rows"" => [9, 9, 3, 3, 3]}], ""number"" => 12, ""sequence"" => [""BCCCC"", ""BBCCC""], ""truth_table"" => []}",Thu Jan 30 2020 17:51:01 GMT+0000 (Greenwich Mean Time),1580406661378,1|1|1|1|1|1|1|1|1|0|0|0|1|1|1|1|1|1|1|1|1|0|0|0|1|1|1|0|0|0|0|0|0|0|0|0|1|1|1|0|0|0|0|0|0|0|0|0|1|1|1|0|0|0|0|0|0|0|0|0,5.353466666666667,training_trials,1
11723,,9794,19,all|most|some|none,all|most|some|none,right|wrong,5,,low,placeholder,Graduated High School,1580406982586,placeholder,83,male,"English, Indonesian",5c9dea4a0336360017b5e0bb,Describe these results of <strong>Riverside</strong> so as to make it appear as if there is a <strong>low</strong> success rate without lying.,most|most|wrong,9|9|3|3|3,In this exam,of the students got,of the questions,.,12,"%{""instances"" => [%{""n_col"" => 12, ""rows"" => [9, 9, 3, 3, 3]}], ""number"" => 12, ""sequence"" => [""BCCCC"", ""BBCCC""], ""truth_table"" => []}",Thu Jan 30 2020 17:51:01 GMT+0000 (Greenwich Mean Time),1580406661378,1|1|1|1|1|1|1|1|1|0|0|0|1|1|1|1|1|1|1|1|1|0|0|0|1|1|1|0|0|0|0|0|0|0|0|0|1|1|1|0|0|0|0|0|0|0|0|0|1|1|1|0|0|0|0|0|0|0|0|0,5.353466666666667,training_trials,2
11723,,17756,19,all|most|some|none,all|most|some|none,right|wrong,5,,low,placeholder,Graduated High School,1580406982586,placeholder,83,male,"English, Indonesian",5c9dea4a0336360017b5e0bb,Describe these results of <strong>Riverside</strong> so as to make it appear as if there is a <strong>low</strong> success rate without lying.,most|all|wrong,12|12|0|0|0,In this exam,of the students got,of the questions,.,4,"%{""instances"" => [%{""n_col"" => 12, ""rows"" => [12, 12, 0, 0, 0]}], ""number"" => 4, ""sequence"" => [""ADDDD"", ""AADDD"", ""ABDDD"", ""ACDDD""], ""truth_table"" => []}",Thu Jan 30 2020 17:51:01 GMT+0000 (Greenwich Mean Time),1580406661378,1|1|1|1|1|1|1|1|1|1|1|1|1|1|1|1|1|1|1|1|1|1|1|1|0|0|0|0|0|0|0|0|0|0|0|0|0|0|0|0|0|0|0|0|0|0|0|0|0|0|0|0|0|0|0|0|0|0|0|0,5.353466666666667,training_trials,3
11723,,7822,19,all|most|some|none,all|most|some|none,right|wrong,5,,high,placeholder,Graduated High School,1580406982586,placeholder,83,male,"English, Indonesian",5c9dea4a0336360017b5e0bb,Describe these results of <strong>Green Valley</strong> so as to make it appear as if there is a <strong>high</strong> success rate without lying.,some|all|right,12|12|0|0|0,In this exam,of the students got,of the questions,.,4,"%{""instances"" => [%{""n_col"" => 12, ""rows"" => [12, 12, 0, 0, 0]}], ""number"" => 4, ""sequence"" => [""ADDDD"", ""AADDD"", ""ABDDD"", ""ACDDD""], ""truth_table"" => []}",Thu Jan 30 2020 17:51:01 GMT+0000 (Greenwich Mean Time),1580406661378,1|1|1|1|1|1|1|1|1|1|1|1|1|1|1|1|1|1|1|1|1|1|1|1|0|0|0|0|0|0|0|0|0|0|0|0|0|0|0|0|0|0|0|0|0|0|0|0|0|0|0|0|0|0|0|0|0|0|0|0,5.353466666666667,training_trials,4
11723,,16689,19,all|most|some|none,all|most|some|none,right|wrong,5,,high,placeholder,Graduated High School,1580406982586,placeholder,83,male,"English, Indonesian",5c9dea4a0336360017b5e0bb,Describe these results of <strong>Green Valley</strong> so as to make it appear as if there is a <strong>high</strong> success rate without lying.,most|some|right,3|3|3|3|3,In this exam,of the students got,of the questions,.,11,"%{""instances"" => [%{""n_col"" => 12, ""rows"" => [3, 3, 3, 3, 3]}], ""number"" => 11, ""sequence"" => [""CCCCC""], ""truth_table"" => []}",Thu Jan 30 2020 17:51:01 GMT+0000 (Greenwich Mean Time),1580406661378,1|1|1|0|0|0|0|0|0|0|0|0|1|1|1|0|0|0|0|0|0|0|0|0|1|1|1|0|0|0|0|0|0|0|0|0|1|1|1|0|0|0|0|0|0|0|0|0|1|1|1|0|0|0|0|0|0|0|0|0,5.353466666666667,main_trials,1
11723,,23941,19,all|most|some|none,all|most|some|none,right|wrong,5,,low,placeholder,Graduated High School,1580406982586,placeholder,83,male,"English, Indonesian",5c9dea4a0336360017b5e0bb,Describe these results of <strong>Riverside</strong> so as to make it appear as if there is a <strong>low</strong> success rate without lying.,some|some|wrong,12|12|12|9|9,In this exam,of the students got,of the questions,.,19,"%{""instances"" => [%{""n_col"" => 12, ""rows"" => '\f\f\f\t\t'}], ""number"" => 19, ""sequence"" => [""AAABB"", ""AAAAB""], ""truth_table"" => []}",Thu Jan 30 2020 17:51:01 GMT+0000 (Greenwich Mean Time),1580406661378,1|1|1|1|1|1|1|1|1|1|1|1|1|1|1|1|1|1|1|1|1|1|1|1|1|1|1|1|1|1|1|1|1|1|1|1|1|1|1|1|1|1|1|1|1|0|0|0|1|1|1|1|1|1|1|1|1|0|0|0,5.353466666666667,main_trials,2
11723,,14517,19,all|most|some|none,all|most|some|none,right|wrong,5,,high,placeholder,Graduated High School,1580406982586,placeholder,83,male,"English, Indonesian",5c9dea4a0336360017b5e0bb,Describe these results of <strong>Green Valley</strong> so as to make it appear as if there is a <strong>high</strong> success rate without lying.,most|some|right,3|3|3|0|0,In this exam,of the students got,of the questions,.,5,"%{""instances"" => [%{""n_col"" => 12, ""rows"" => [3, 3, 3, 0, 0]}], ""number"" => 5, ""sequence"" => [""CCCDD"", ""CCCCD""], ""truth_table"" => []}",Thu Jan 30 2020 17:51:01 GMT+0000 (Greenwich Mean Time),1580406661378,1|1|1|0|0|0|0|0|0|0|0|0|1|1|1|0|0|0|0|0|0|0|0|0|1|1|1|0|0|0|0|0|0|0|0|0|0|0|0|0|0|0|0|0|0|0|0|0|0|0|0|0|0|0|0|0|0|0|0|0,5.353466666666667,main_trials,3
11723,,8031,19,all|most|some|none,all|most|some|none,right|wrong,5,,high,placeholder,Graduated High School,1580406982586,placeholder,83,male,"English, Indonesian",5c9dea4a0336360017b5e0bb,Describe these results of <strong>Green Valley</strong> so as to make it appear as if there is a <strong>high</strong> success rate without lying.,all|all|right,12|12|12|12|12,In this exam,of the students got,of the questions,.,20,"%{""instances"" => [%{""n_col"" => 12, ""rows"" => '\f\f\f\f\f'}], ""number"" => 20, ""sequence"" => [""AAAAA""], ""truth_table"" => []}",Thu Jan 30 2020 17:51:01 GMT+0000 (Greenwich Mean Time),1580406661378,1|1|1|1|1|1|1|1|1|1|1|1|1|1|1|1|1|1|1|1|1|1|1|1|1|1|1|1|1|1|1|1|1|1|1|1|1|1|1|1|1|1|1|1|1|1|1|1|1|1|1|1|1|1|1|1|1|1|1|1,5.353466666666667,main_trials,4
11723,,7956,19,all|most|some|none,all|most|some|none,right|wrong,5,,high,placeholder,Graduated High School,1580406982586,placeholder,83,male,"English, Indonesian",5c9dea4a0336360017b5e0bb,Describe these results of <strong>Green Valley</strong> so as to make it appear as if there is a <strong>high</strong> success rate without lying.,most|most|right,12|12|9|0|0,In this exam,of the students got,of the questions,.,8,"%{""instances"" => [%{""n_col"" => 12, ""rows"" => [12, 12, 9, 0, 0]}], ""number"" => 8, ""sequence"" => [""ABBBD"", ""ABBDD"", ""AABDD"", ""ABBBD"", ""ABBCD"", ""AABCD""], ""truth_table"" => []}",Thu Jan 30 2020 17:51:01 GMT+0000 (Greenwich Mean Time),1580406661378,1|1|1|1|1|1|1|1|1|1|1|1|1|1|1|1|1|1|1|1|1|1|1|1|1|1|1|1|1|1|1|1|1|0|0|0|0|0|0|0|0|0|0|0|0|0|0|0|0|0|0|0|0|0|0|0|0|0|0|0,5.353466666666667,main_trials,5
11723,,10510,19,all|most|some|none,all|most|some|none,right|wrong,5,,low,placeholder,Graduated High School,1580406982586,placeholder,83,male,"English, Indonesian",5c9dea4a0336360017b5e0bb,Describe these results of <strong>Riverside</strong> so as to make it appear as if there is a <strong>low</strong> success rate without lying.,most|most|wrong,9|9|3|0|0,In this exam,of the students got,of the questions,.,6,"%{""instances"" => [%{""n_col"" => 12, ""rows"" => [9, 9, 3, 0, 0]}], ""number"" => 6, ""sequence"" => [""BCCCD"", ""BCCDD"", ""BBCDD"", ""BBCCD""], ""truth_table"" => []}",Thu Jan 30 2020 17:51:01 GMT+0000 (Greenwich Mean Time),1580406661378,1|1|1|1|1|1|1|1|1|0|0|0|1|1|1|1|1|1|1|1|1|0|0|0|1|1|1|0|0|0|0|0|0|0|0|0|0|0|0|0|0|0|0|0|0|0|0|0|0|0|0|0|0|0|0|0|0|0|0|0,5.353466666666667,main_trials,6
11723,,15719,19,all|most|some|none,all|most|some|none,right|wrong,5,,high,placeholder,Graduated High School,1580406982586,placeholder,83,male,"English, Indonesian",5c9dea4a0336360017b5e0bb,Describe these results of <strong>Green Valley</strong> so as to make it appear as if there is a <strong>high</strong> success rate without lying.,none|none|right,12|12|3|3|3,In this exam,of the students got,of the questions,.,13,"%{""instances"" => [%{""n_col"" => 12, ""rows"" => [12, 12, 3, 3, 3]}], ""number"" => 13, ""sequence"" => [""ACCCC"", ""AACCC"", ""ABCCC""], ""truth_table"" => []}",Thu Jan 30 2020 17:51:01 GMT+0000 (Greenwich Mean Time),1580406661378,1|1|1|1|1|1|1|1|1|1|1|1|1|1|1|1|1|1|1|1|1|1|1|1|1|1|1|0|0|0|0|0|0|0|0|0|1|1|1|0|0|0|0|0|0|0|0|0|1|1|1|0|0|0|0|0|0|0|0|0,5.353466666666667,main_trials,7
11723,,11633,19,all|most|some|none,all|most|some|none,right|wrong,5,,high,placeholder,Graduated High School,1580406982586,placeholder,83,male,"English, Indonesian",5c9dea4a0336360017b5e0bb,Describe these results of <strong>Green Valley</strong> so as to make it appear as if there is a <strong>high</strong> success rate without lying.,some|all|right,12|12|3|0|0,In this exam,of the students got,of the questions,.,1,"%{""instances"" => [%{""n_col"" => 12, ""rows"" => [12, 12, 3, 0, 0]}], ""number"" => 1, ""sequence"" => [""ACCCD"", ""ACCDD"", ""AACDD"", ""AACCD"", ""ABCDD"", ""ABCCD""], ""truth_table"" => []}",Thu Jan 30 2020 17:51:01 GMT+0000 (Greenwich Mean Time),1580406661378,1|1|1|1|1|1|1|1|1|1|1|1|1|1|1|1|1|1|1|1|1|1|1|1|1|1|1|0|0|0|0|0|0|0|0|0|0|0|0|0|0|0|0|0|0|0|0|0|0|0|0|0|0|0|0|0|0|0|0|0,5.353466666666667,main_trials,8
11723,,4449,19,all|most|some|none,all|most|some|none,right|wrong,5,,low,placeholder,Graduated High School,1580406982586,placeholder,83,male,"English, Indonesian",5c9dea4a0336360017b5e0bb,Describe these results of <strong>Riverside</strong> so as to make it appear as if there is a <strong>low</strong> success rate without lying.,most|all|wrong,9|9|0|0|0,In this exam,of the students got,of the questions,.,3,"%{""instances"" => [%{""n_col"" => 12, ""rows"" => [9, 9, 0, 0, 0]}], ""number"" => 3, ""sequence"" => [""BDDDD"", ""BBDDD"", ""BCDDD""], ""truth_table"" => []}",Thu Jan 30 2020 17:51:01 GMT+0000 (Greenwich Mean Time),1580406661378,1|1|1|1|1|1|1|1|1|0|0|0|1|1|1|1|1|1|1|1|1|0|0|0|0|0|0|0|0|0|0|0|0|0|0|0|0|0|0|0|0|0|0|0|0|0|0|0|0|0|0|0|0|0|0|0|0|0|0|0,5.353466666666667,main_trials,9
11723,,4873,19,all|most|some|none,all|most|some|none,right|wrong,5,,high,placeholder,Graduated High School,1580406982586,placeholder,83,male,"English, Indonesian",5c9dea4a0336360017b5e0bb,Describe these results of <strong>Green Valley</strong> so as to make it appear as if there is a <strong>high</strong> success rate without lying.,most|most|right,9|9|9|0|0,In this exam,of the students got,of the questions,.,7,"%{""instances"" => [%{""n_col"" => 12, ""rows"" => [9, 9, 9, 0, 0]}], ""number"" => 7, ""sequence"" => [""BBBDD"", ""BBBBD"", ""BBBCD""], ""truth_table"" => []}",Thu Jan 30 2020 17:51:01 GMT+0000 (Greenwich Mean Time),1580406661378,1|1|1|1|1|1|1|1|1|0|0|0|1|1|1|1|1|1|1|1|1|0|0|0|1|1|1|1|1|1|1|1|1|0|0|0|0|0|0|0|0|0|0|0|0|0|0|0|0|0|0|0|0|0|0|0|0|0|0|0,5.353466666666667,main_trials,10
11723,,4631,19,all|most|some|none,all|most|some|none,right|wrong,5,,low,placeholder,Graduated High School,1580406982586,placeholder,83,male,"English, Indonesian",5c9dea4a0336360017b5e0bb,Describe these results of <strong>Riverside</strong> so as to make it appear as if there is a <strong>low</strong> success rate without lying.,some|all|wrong,12|12|12|0|0,In this exam,of the students got,of the questions,.,9,"%{""instances"" => [%{""n_col"" => 12, ""rows"" => [12, 12, 12, 0, 0]}], ""number"" => 9, ""sequence"" => [""AAADD"", ""AAAAD"", ""AAABD"", ""AAACD""], ""truth_table"" => []}",Thu Jan 30 2020 17:51:01 GMT+0000 (Greenwich Mean Time),1580406661378,1|1|1|1|1|1|1|1|1|1|1|1|1|1|1|1|1|1|1|1|1|1|1|1|1|1|1|1|1|1|1|1|1|1|1|1|0|0|0|0|0|0|0|0|0|0|0|0|0|0|0|0|0|0|0|0|0|0|0|0,5.353466666666667,main_trials,11
11723,,4484,19,all|most|some|none,all|most|some|none,right|wrong,5,,high,placeholder,Graduated High School,1580406982586,placeholder,83,male,"English, Indonesian",5c9dea4a0336360017b5e0bb,Describe these results of <strong>Green Valley</strong> so as to make it appear as if there is a <strong>high</strong> success rate without lying.,some|all|right,12|12|0|0|0,In this exam,of the students got,of the questions,.,4,"%{""instances"" => [%{""n_col"" => 12, ""rows"" => [12, 12, 0, 0, 0]}], ""number"" => 4, ""sequence"" => [""ADDDD"", ""AADDD"", ""ABDDD"", ""ACDDD""], ""truth_table"" => []}",Thu Jan 30 2020 17:51:01 GMT+0000 (Greenwich Mean Time),1580406661378,1|1|1|1|1|1|1|1|1|1|1|1|1|1|1|1|1|1|1|1|1|1|1|1|0|0|0|0|0|0|0|0|0|0|0|0|0|0|0|0|0|0|0|0|0|0|0|0|0|0|0|0|0|0|0|0|0|0|0|0,5.353466666666667,main_trials,12
11723,,12209,19,all|most|some|none,all|most|some|none,right|wrong,5,,high,placeholder,Graduated High School,1580406982586,placeholder,83,male,"English, Indonesian",5c9dea4a0336360017b5e0bb,Describe these results of <strong>Green Valley</strong> so as to make it appear as if there is a <strong>high</strong> success rate without lying.,most|most|right,12|12|9|3|3,In this exam,of the students got,of the questions,.,15,"%{""instances"" => [%{""n_col"" => 12, ""rows"" => [12, 12, 9, 3, 3]}], ""number"" => 15, ""sequence"" => [""ABBBC"", ""ABBCC"", ""AABCC"", ""AABBC""], ""truth_table"" => []}",Thu Jan 30 2020 17:51:01 GMT+0000 (Greenwich Mean Time),1580406661378,1|1|1|1|1|1|1|1|1|1|1|1|1|1|1|1|1|1|1|1|1|1|1|1|1|1|1|1|1|1|1|1|1|0|0|0|1|1|1|0|0|0|0|0|0|0|0|0|1|1|1|0|0|0|0|0|0|0|0|0,5.353466666666667,main_trials,13
11723,,6204,19,all|most|some|none,all|most|some|none,right|wrong,5,,low,placeholder,Graduated High School,1580406982586,placeholder,83,male,"English, Indonesian",5c9dea4a0336360017b5e0bb,Describe these results of <strong>Riverside</strong> so as to make it appear as if there is a <strong>low</strong> success rate without lying.,all|some|wrong,9|9|9|9|9,In this exam,of the students got,of the questions,.,17,"%{""instances"" => [%{""n_col"" => 12, ""rows"" => '\t\t\t\t\t'}], ""number"" => 17, ""sequence"" => [""BBBBB""], ""truth_table"" => []}",Thu Jan 30 2020 17:51:01 GMT+0000 (Greenwich Mean Time),1580406661378,1|1|1|1|1|1|1|1|1|0|0|0|1|1|1|1|1|1|1|1|1|0|0|0|1|1|1|1|1|1|1|1|1|0|0|0|1|1|1|1|1|1|1|1|1|0|0|0|1|1|1|1|1|1|1|1|1|0|0|0,5.353466666666667,main_trials,14
11723,,5800,19,all|most|some|none,all|most|some|none,right|wrong,5,,low,placeholder,Graduated High School,1580406982586,placeholder,83,male,"English, Indonesian",5c9dea4a0336360017b5e0bb,Describe these results of <strong>Riverside</strong> so as to make it appear as if there is a <strong>low</strong> success rate without lying.,most|most|wrong,9|9|3|3|3,In this exam,of the students got,of the questions,.,12,"%{""instances"" => [%{""n_col"" => 12, ""rows"" => [9, 9, 3, 3, 3]}], ""number"" => 12, ""sequence"" => [""BCCCC"", ""BBCCC""], ""truth_table"" => []}",Thu Jan 30 2020 17:51:01 GMT+0000 (Greenwich Mean Time),1580406661378,1|1|1|1|1|1|1|1|1|0|0|0|1|1|1|1|1|1|1|1|1|0|0|0|1|1|1|0|0|0|0|0|0|0|0|0|1|1|1|0|0|0|0|0|0|0|0|0|1|1|1|0|0|0|0|0|0|0|0|0,5.353466666666667,main_trials,15
11723,,8693,19,all|most|some|none,all|most|some|none,right|wrong,5,,high,placeholder,Graduated High School,1580406982586,placeholder,83,male,"English, Indonesian",5c9dea4a0336360017b5e0bb,Describe these results of <strong>Green Valley</strong> so as to make it appear as if there is a <strong>high</strong> success rate without lying.,most|most|right,12|12|9|9|9,In this exam,of the students got,of the questions,.,18,"%{""instances"" => [%{""n_col"" => 12, ""rows"" => '\f\f\t\t\t'}], ""number"" => 18, ""sequence"" => [""ABBBB"", ""AABBB""], ""truth_table"" => []}",Thu Jan 30 2020 17:51:01 GMT+0000 (Greenwich Mean Time),1580406661378,1|1|1|1|1|1|1|1|1|1|1|1|1|1|1|1|1|1|1|1|1|1|1|1|1|1|1|1|1|1|1|1|1|0|0|0|1|1|1|1|1|1|1|1|1|0|0|0|1|1|1|1|1|1|1|1|1|0|0|0,5.353466666666667,main_trials,16
11723,,5820,19,all|most|some|none,all|most|some|none,right|wrong,5,,low,placeholder,Graduated High School,1580406982586,placeholder,83,male,"English, Indonesian",5c9dea4a0336360017b5e0bb,Describe these results of <strong>Riverside</strong> so as to make it appear as if there is a <strong>low</strong> success rate without lying.,some|most|wrong,12|12|12|3|3,In this exam,of the students got,of the questions,.,16,"%{""instances"" => [%{""n_col"" => 12, ""rows"" => [12, 12, 12, 3, 3]}], ""number"" => 16, ""sequence"" => [""AAACC"", ""AAAAC"", ""AAABC""], ""truth_table"" => []}",Thu Jan 30 2020 17:51:01 GMT+0000 (Greenwich Mean Time),1580406661378,1|1|1|1|1|1|1|1|1|1|1|1|1|1|1|1|1|1|1|1|1|1|1|1|1|1|1|1|1|1|1|1|1|1|1|1|1|1|1|0|0|0|0|0|0|0|0|0|1|1|1|0|0|0|0|0|0|0|0|0,5.353466666666667,main_trials,17
11723,,7781,19,all|most|some|none,all|most|some|none,right|wrong,5,,low,placeholder,Graduated High School,1580406982586,placeholder,83,male,"English, Indonesian",5c9dea4a0336360017b5e0bb,Describe these results of <strong>Riverside</strong> so as to make it appear as if there is a <strong>low</strong> success rate without lying.,all|all|wrong,0|0|0|0|0,In this exam,of the students got,of the questions,.,10,"%{""instances"" => [%{""n_col"" => 12, ""rows"" => [0, 0, 0, 0, 0]}], ""number"" => 10, ""sequence"" => [""DDDDD""], ""truth_table"" => []}",Thu Jan 30 2020 17:51:01 GMT+0000 (Greenwich Mean Time),1580406661378,0|0|0|0|0|0|0|0|0|0|0|0|0|0|0|0|0|0|0|0|0|0|0|0|0|0|0|0|0|0|0|0|0|0|0|0|0|0|0|0|0|0|0|0|0|0|0|0|0|0|0|0|0|0|0|0|0|0|0|0,5.353466666666667,main_trials,18
11723,,4339,19,all|most|some|none,all|most|some|none,right|wrong,5,,low,placeholder,Graduated High School,1580406982586,placeholder,83,male,"English, Indonesian",5c9dea4a0336360017b5e0bb,Describe these results of <strong>Riverside</strong> so as to make it appear as if there is a <strong>low</strong> success rate without lying.,some|most|wrong,9|9|9|3|3,In this exam,of the students got,of the questions,.,14,"%{""instances"" => [%{""n_col"" => 12, ""rows"" => [9, 9, 9, 3, 3]}], ""number"" => 14, ""sequence"" => [""BBBCC"", ""BBBBC""], ""truth_table"" => []}",Thu Jan 30 2020 17:51:01 GMT+0000 (Greenwich Mean Time),1580406661378,1|1|1|1|1|1|1|1|1|0|0|0|1|1|1|1|1|1|1|1|1|0|0|0|1|1|1|1|1|1|1|1|1|0|0|0|1|1|1|0|0|0|0|0|0|0|0|0|1|1|1|0|0|0|0|0|0|0|0|0,5.353466666666667,main_trials,19
11723,,8053,19,all|most|some|none,all|most|some|none,right|wrong,5,,low,placeholder,Graduated High School,1580406982586,placeholder,83,male,"English, Indonesian",5c9dea4a0336360017b5e0bb,Describe these results of <strong>Riverside</strong> so as to make it appear as if there is a <strong>low</strong> success rate without lying.,most|all|wrong,3|3|0|0|0,In this exam,of the students got,of the questions,.,2,"%{""instances"" => [%{""n_col"" => 12, ""rows"" => [3, 3, 0, 0, 0]}], ""number"" => 2, ""sequence"" => [""CDDDD"", ""CCDDD""], ""truth_table"" => []}",Thu Jan 30 2020 17:51:01 GMT+0000 (Greenwich Mean Time),1580406661378,1|1|1|0|0|0|0|0|0|0|0|0|1|1|1|0|0|0|0|0|0|0|0|0|0|0|0|0|0|0|0|0|0|0|0|0|0|0|0|0|0|0|0|0|0|0|0|0|0|0|0|0|0|0|0|0|0|0|0|0,5.353466666666667,main_trials,20
11728,,35255,21,all|most|some|none,all|most|some|none,right|wrong,5,,low,placeholder,Graduated High School,1580407457561,placeholder,83,male,English,5c8986b5f82e210015e33375,Describe these results of <strong>Riverside</strong> so as to make it appear as if there is a <strong>low</strong> success rate without lying.,most|most|wrong,9|9|3|3|3,In this exam,of the students got,of the questions,.,12,"%{""instances"" => [%{""n_col"" => 12, ""rows"" => [9, 9, 3, 3, 3]}], ""number"" => 12, ""sequence"" => [""BCCCC"", ""BBCCC""], ""truth_table"" => []}",Thu Jan 30 2020 12:50:39 GMT-0500 (Eastern Standard Time),1580406639028,1|1|1|1|1|1|1|1|1|0|0|0|1|1|1|1|1|1|1|1|1|0|0|0|1|1|1|0|0|0|0|0|0|0|0|0|1|1|1|0|0|0|0|0|0|0|0|0|1|1|1|0|0|0|0|0|0|0|0|0,13.642216666666666,training_trials,1
11728,,13082,21,all|most|some|none,all|most|some|none,right|wrong,5,,low,placeholder,Graduated High School,1580407457561,placeholder,83,male,English,5c8986b5f82e210015e33375,Describe these results of <strong>Riverside</strong> so as to make it appear as if there is a <strong>low</strong> success rate without lying.,most|all|wrong,12|12|0|0|0,In this exam,of the students got,of the questions,.,4,"%{""instances"" => [%{""n_col"" => 12, ""rows"" => [12, 12, 0, 0, 0]}], ""number"" => 4, ""sequence"" => [""ADDDD"", ""AADDD"", ""ABDDD"", ""ACDDD""], ""truth_table"" => []}",Thu Jan 30 2020 12:50:39 GMT-0500 (Eastern Standard Time),1580406639028,1|1|1|1|1|1|1|1|1|1|1|1|1|1|1|1|1|1|1|1|1|1|1|1|0|0|0|0|0|0|0|0|0|0|0|0|0|0|0|0|0|0|0|0|0|0|0|0|0|0|0|0|0|0|0|0|0|0|0|0,13.642216666666666,training_trials,2
11728,,22417,21,all|most|some|none,all|most|some|none,right|wrong,5,,high,placeholder,Graduated High School,1580407457561,placeholder,83,male,English,5c8986b5f82e210015e33375,Describe these results of <strong>Green Valley</strong> so as to make it appear as if there is a <strong>high</strong> success rate without lying.,some|all|right,12|12|0|0|0,In this exam,of the students got,of the questions,.,4,"%{""instances"" => [%{""n_col"" => 12, ""rows"" => [12, 12, 0, 0, 0]}], ""number"" => 4, ""sequence"" => [""ADDDD"", ""AADDD"", ""ABDDD"", ""ACDDD""], ""truth_table"" => []}",Thu Jan 30 2020 12:50:39 GMT-0500 (Eastern Standard Time),1580406639028,1|1|1|1|1|1|1|1|1|1|1|1|1|1|1|1|1|1|1|1|1|1|1|1|0|0|0|0|0|0|0|0|0|0|0|0|0|0|0|0|0|0|0|0|0|0|0|0|0|0|0|0|0|0|0|0|0|0|0|0,13.642216666666666,training_trials,3
11728,,30114,21,all|most|some|none,all|most|some|none,right|wrong,5,,high,placeholder,Graduated High School,1580407457561,placeholder,83,male,English,5c8986b5f82e210015e33375,Describe these results of <strong>Green Valley</strong> so as to make it appear as if there is a <strong>high</strong> success rate without lying.,some|most|right,9|9|3|3|3,In this exam,of the students got,of the questions,.,12,"%{""instances"" => [%{""n_col"" => 12, ""rows"" => [9, 9, 3, 3, 3]}], ""number"" => 12, ""sequence"" => [""BCCCC"", ""BBCCC""], ""truth_table"" => []}",Thu Jan 30 2020 12:50:39 GMT-0500 (Eastern Standard Time),1580406639028,1|1|1|1|1|1|1|1|1|0|0|0|1|1|1|1|1|1|1|1|1|0|0|0|1|1|1|0|0|0|0|0|0|0|0|0|1|1|1|0|0|0|0|0|0|0|0|0|1|1|1|0|0|0|0|0|0|0|0|0,13.642216666666666,training_trials,4
11728,,20308,21,all|most|some|none,all|most|some|none,right|wrong,5,,high,placeholder,Graduated High School,1580407457561,placeholder,83,male,English,5c8986b5f82e210015e33375,Describe these results of <strong>Green Valley</strong> so as to make it appear as if there is a <strong>high</strong> success rate without lying.,some|most|right,9|9|3|0|0,In this exam,of the students got,of the questions,.,6,"%{""instances"" => [%{""n_col"" => 12, ""rows"" => [9, 9, 3, 0, 0]}], ""number"" => 6, ""sequence"" => [""BCCCD"", ""BCCDD"", ""BBCDD"", ""BBCCD""], ""truth_table"" => []}",Thu Jan 30 2020 12:50:39 GMT-0500 (Eastern Standard Time),1580406639028,1|1|1|1|1|1|1|1|1|0|0|0|1|1|1|1|1|1|1|1|1|0|0|0|1|1|1|0|0|0|0|0|0|0|0|0|0|0|0|0|0|0|0|0|0|0|0|0|0|0|0|0|0|0|0|0|0|0|0|0,13.642216666666666,main_trials,1
11728,,46047,21,all|most|some|none,all|most|some|none,right|wrong,5,,high,placeholder,Graduated High School,1580407457561,placeholder,83,male,English,5c8986b5f82e210015e33375,Describe these results of <strong>Green Valley</strong> so as to make it appear as if there is a <strong>high</strong> success rate without lying.,some|most|right,9|9|0|0|0,In this exam,of the students got,of the questions,.,3,"%{""instances"" => [%{""n_col"" => 12, ""rows"" => [9, 9, 0, 0, 0]}], ""number"" => 3, ""sequence"" => [""BDDDD"", ""BBDDD"", ""BCDDD""], ""truth_table"" => []}",Thu Jan 30 2020 12:50:39 GMT-0500 (Eastern Standard Time),1580406639028,1|1|1|1|1|1|1|1|1|0|0|0|1|1|1|1|1|1|1|1|1|0|0|0|0|0|0|0|0|0|0|0|0|0|0|0|0|0|0|0|0|0|0|0|0|0|0|0|0|0|0|0|0|0|0|0|0|0|0|0,13.642216666666666,main_trials,2
11728,,19766,21,all|most|some|none,all|most|some|none,right|wrong,5,,high,placeholder,Graduated High School,1580407457561,placeholder,83,male,English,5c8986b5f82e210015e33375,Describe these results of <strong>Green Valley</strong> so as to make it appear as if there is a <strong>high</strong> success rate without lying.,most|most|right,9|9|9|3|3,In this exam,of the students got,of the questions,.,14,"%{""instances"" => [%{""n_col"" => 12, ""rows"" => [9, 9, 9, 3, 3]}], ""number"" => 14, ""sequence"" => [""BBBCC"", ""BBBBC""], ""truth_table"" => []}",Thu Jan 30 2020 12:50:39 GMT-0500 (Eastern Standard Time),1580406639028,1|1|1|1|1|1|1|1|1|0|0|0|1|1|1|1|1|1|1|1|1|0|0|0|1|1|1|1|1|1|1|1|1|0|0|0|1|1|1|0|0|0|0|0|0|0|0|0|1|1|1|0|0|0|0|0|0|0|0|0,13.642216666666666,main_trials,3
11728,,29820,21,all|most|some|none,all|most|some|none,right|wrong,5,,high,placeholder,Graduated High School,1580407457561,placeholder,83,male,English,5c8986b5f82e210015e33375,Describe these results of <strong>Green Valley</strong> so as to make it appear as if there is a <strong>high</strong> success rate without lying.,most|all|right,12|12|12|3|3,In this exam,of the students got,of the questions,.,16,"%{""instances"" => [%{""n_col"" => 12, ""rows"" => [12, 12, 12, 3, 3]}], ""number"" => 16, ""sequence"" => [""AAACC"", ""AAAAC"", ""AAABC""], ""truth_table"" => []}",Thu Jan 30 2020 12:50:39 GMT-0500 (Eastern Standard Time),1580406639028,1|1|1|1|1|1|1|1|1|1|1|1|1|1|1|1|1|1|1|1|1|1|1|1|1|1|1|1|1|1|1|1|1|1|1|1|1|1|1|0|0|0|0|0|0|0|0|0|1|1|1|0|0|0|0|0|0|0|0|0,13.642216666666666,main_trials,4
11728,,43769,21,all|most|some|none,all|most|some|none,right|wrong,5,,low,placeholder,Graduated High School,1580407457561,placeholder,83,male,English,5c8986b5f82e210015e33375,Describe these results of <strong>Riverside</strong> so as to make it appear as if there is a <strong>low</strong> success rate without lying.,all|most|wrong,3|3|3|0|0,In this exam,of the students got,of the questions,.,5,"%{""instances"" => [%{""n_col"" => 12, ""rows"" => [3, 3, 3, 0, 0]}], ""number"" => 5, ""sequence"" => [""CCCDD"", ""CCCCD""], ""truth_table"" => []}",Thu Jan 30 2020 12:50:39 GMT-0500 (Eastern Standard Time),1580406639028,1|1|1|0|0|0|0|0|0|0|0|0|1|1|1|0|0|0|0|0|0|0|0|0|1|1|1|0|0|0|0|0|0|0|0|0|0|0|0|0|0|0|0|0|0|0|0|0|0|0|0|0|0|0|0|0|0|0|0|0,13.642216666666666,main_trials,5
11728,,23159,21,all|most|some|none,all|most|some|none,right|wrong,5,,high,placeholder,Graduated High School,1580407457561,placeholder,83,male,English,5c8986b5f82e210015e33375,Describe these results of <strong>Green Valley</strong> so as to make it appear as if there is a <strong>high</strong> success rate without lying.,most|most|right,9|9|9|0|0,In this exam,of the students got,of the questions,.,7,"%{""instances"" => [%{""n_col"" => 12, ""rows"" => [9, 9, 9, 0, 0]}], ""number"" => 7, ""sequence"" => [""BBBDD"", ""BBBBD"", ""BBBCD""], ""truth_table"" => []}",Thu Jan 30 2020 12:50:39 GMT-0500 (Eastern Standard Time),1580406639028,1|1|1|1|1|1|1|1|1|0|0|0|1|1|1|1|1|1|1|1|1|0|0|0|1|1|1|1|1|1|1|1|1|0|0|0|0|0|0|0|0|0|0|0|0|0|0|0|0|0|0|0|0|0|0|0|0|0|0|0,13.642216666666666,main_trials,6
11728,,22967,21,all|most|some|none,all|most|some|none,right|wrong,5,,low,placeholder,Graduated High School,1580407457561,placeholder,83,male,English,5c8986b5f82e210015e33375,Describe these results of <strong>Riverside</strong> so as to make it appear as if there is a <strong>low</strong> success rate without lying.,most|all|wrong,12|12|0|0|0,In this exam,of the students got,of the questions,.,4,"%{""instances"" => [%{""n_col"" => 12, ""rows"" => [12, 12, 0, 0, 0]}], ""number"" => 4, ""sequence"" => [""ADDDD"", ""AADDD"", ""ABDDD"", ""ACDDD""], ""truth_table"" => []}",Thu Jan 30 2020 12:50:39 GMT-0500 (Eastern Standard Time),1580406639028,1|1|1|1|1|1|1|1|1|1|1|1|1|1|1|1|1|1|1|1|1|1|1|1|0|0|0|0|0|0|0|0|0|0|0|0|0|0|0|0|0|0|0|0|0|0|0|0|0|0|0|0|0|0|0|0|0|0|0|0,13.642216666666666,main_trials,7
11728,,19272,21,all|most|some|none,all|most|some|none,right|wrong,5,,low,placeholder,Graduated High School,1580407457561,placeholder,83,male,English,5c8986b5f82e210015e33375,Describe these results of <strong>Riverside</strong> so as to make it appear as if there is a <strong>low</strong> success rate without lying.,all|most|wrong,3|3|3|3|3,In this exam,of the students got,of the questions,.,11,"%{""instances"" => [%{""n_col"" => 12, ""rows"" => [3, 3, 3, 3, 3]}], ""number"" => 11, ""sequence"" => [""CCCCC""], ""truth_table"" => []}",Thu Jan 30 2020 12:50:39 GMT-0500 (Eastern Standard Time),1580406639028,1|1|1|0|0|0|0|0|0|0|0|0|1|1|1|0|0|0|0|0|0|0|0|0|1|1|1|0|0|0|0|0|0|0|0|0|1|1|1|0|0|0|0|0|0|0|0|0|1|1|1|0|0|0|0|0|0|0|0|0,13.642216666666666,main_trials,8
11728,,20567,21,all|most|some|none,all|most|some|none,right|wrong,5,,high,placeholder,Graduated High School,1580407457561,placeholder,83,male,English,5c8986b5f82e210015e33375,Describe these results of <strong>Green Valley</strong> so as to make it appear as if there is a <strong>high</strong> success rate without lying.,some|all|right,12|12|3|0|0,In this exam,of the students got,of the questions,.,1,"%{""instances"" => [%{""n_col"" => 12, ""rows"" => [12, 12, 3, 0, 0]}], ""number"" => 1, ""sequence"" => [""ACCCD"", ""ACCDD"", ""AACDD"", ""AACCD"", ""ABCDD"", ""ABCCD""], ""truth_table"" => []}",Thu Jan 30 2020 12:50:39 GMT-0500 (Eastern Standard Time),1580406639028,1|1|1|1|1|1|1|1|1|1|1|1|1|1|1|1|1|1|1|1|1|1|1|1|1|1|1|0|0|0|0|0|0|0|0|0|0|0|0|0|0|0|0|0|0|0|0|0|0|0|0|0|0|0|0|0|0|0|0|0,13.642216666666666,main_trials,9
11728,,82996,21,all|most|some|none,all|most|some|none,right|wrong,5,,low,placeholder,Graduated High School,1580407457561,placeholder,83,male,English,5c8986b5f82e210015e33375,Describe these results of <strong>Riverside</strong> so as to make it appear as if there is a <strong>low</strong> success rate without lying.,all|none|wrong,12|12|12|12|12,In this exam,of the students got,of the questions,.,20,"%{""instances"" => [%{""n_col"" => 12, ""rows"" => '\f\f\f\f\f'}], ""number"" => 20, ""sequence"" => [""AAAAA""], ""truth_table"" => []}",Thu Jan 30 2020 12:50:39 GMT-0500 (Eastern Standard Time),1580406639028,1|1|1|1|1|1|1|1|1|1|1|1|1|1|1|1|1|1|1|1|1|1|1|1|1|1|1|1|1|1|1|1|1|1|1|1|1|1|1|1|1|1|1|1|1|1|1|1|1|1|1|1|1|1|1|1|1|1|1|1,13.642216666666666,main_trials,10
11728,,18435,21,all|most|some|none,all|most|some|none,right|wrong,5,,high,placeholder,Graduated High School,1580407457561,placeholder,83,male,English,5c8986b5f82e210015e33375,Describe these results of <strong>Green Valley</strong> so as to make it appear as if there is a <strong>high</strong> success rate without lying.,all|none|right,0|0|0|0|0,In this exam,of the students got,of the questions,.,10,"%{""instances"" => [%{""n_col"" => 12, ""rows"" => [0, 0, 0, 0, 0]}], ""number"" => 10, ""sequence"" => [""DDDDD""], ""truth_table"" => []}",Thu Jan 30 2020 12:50:39 GMT-0500 (Eastern Standard Time),1580406639028,0|0|0|0|0|0|0|0|0|0|0|0|0|0|0|0|0|0|0|0|0|0|0|0|0|0|0|0|0|0|0|0|0|0|0|0|0|0|0|0|0|0|0|0|0|0|0|0|0|0|0|0|0|0|0|0|0|0|0|0,13.642216666666666,main_trials,11
11728,,11973,21,all|most|some|none,all|most|some|none,right|wrong,5,,low,placeholder,Graduated High School,1580407457561,placeholder,83,male,English,5c8986b5f82e210015e33375,Describe these results of <strong>Riverside</strong> so as to make it appear as if there is a <strong>low</strong> success rate without lying.,most|all|wrong,3|3|0|0|0,In this exam,of the students got,of the questions,.,2,"%{""instances"" => [%{""n_col"" => 12, ""rows"" => [3, 3, 0, 0, 0]}], ""number"" => 2, ""sequence"" => [""CDDDD"", ""CCDDD""], ""truth_table"" => []}",Thu Jan 30 2020 12:50:39 GMT-0500 (Eastern Standard Time),1580406639028,1|1|1|0|0|0|0|0|0|0|0|0|1|1|1|0|0|0|0|0|0|0|0|0|0|0|0|0|0|0|0|0|0|0|0|0|0|0|0|0|0|0|0|0|0|0|0|0|0|0|0|0|0|0|0|0|0|0|0|0,13.642216666666666,main_trials,12
11728,,28906,21,all|most|some|none,all|most|some|none,right|wrong,5,,high,placeholder,Graduated High School,1580407457561,placeholder,83,male,English,5c8986b5f82e210015e33375,Describe these results of <strong>Green Valley</strong> so as to make it appear as if there is a <strong>high</strong> success rate without lying.,most|most|right,12|12|9|3|3,In this exam,of the students got,of the questions,.,15,"%{""instances"" => [%{""n_col"" => 12, ""rows"" => [12, 12, 9, 3, 3]}], ""number"" => 15, ""sequence"" => [""ABBBC"", ""ABBCC"", ""AABCC"", ""AABBC""], ""truth_table"" => []}",Thu Jan 30 2020 12:50:39 GMT-0500 (Eastern Standard Time),1580406639028,1|1|1|1|1|1|1|1|1|1|1|1|1|1|1|1|1|1|1|1|1|1|1|1|1|1|1|1|1|1|1|1|1|0|0|0|1|1|1|0|0|0|0|0|0|0|0|0|1|1|1|0|0|0|0|0|0|0|0|0,13.642216666666666,main_trials,13
11728,,34435,21,all|most|some|none,all|most|some|none,right|wrong,5,,low,placeholder,Graduated High School,1580407457561,placeholder,83,male,English,5c8986b5f82e210015e33375,Describe these results of <strong>Riverside</strong> so as to make it appear as if there is a <strong>low</strong> success rate without lying.,some|all|wrong,12|12|9|0|0,In this exam,of the students got,of the questions,.,8,"%{""instances"" => [%{""n_col"" => 12, ""rows"" => [12, 12, 9, 0, 0]}], ""number"" => 8, ""sequence"" => [""ABBBD"", ""ABBDD"", ""AABDD"", ""ABBBD"", ""ABBCD"", ""AABCD""], ""truth_table"" => []}",Thu Jan 30 2020 12:50:39 GMT-0500 (Eastern Standard Time),1580406639028,1|1|1|1|1|1|1|1|1|1|1|1|1|1|1|1|1|1|1|1|1|1|1|1|1|1|1|1|1|1|1|1|1|0|0|0|0|0|0|0|0|0|0|0|0|0|0|0|0|0|0|0|0|0|0|0|0|0|0|0,13.642216666666666,main_trials,14
11728,,38696,21,all|most|some|none,all|most|some|none,right|wrong,5,,high,placeholder,Graduated High School,1580407457561,placeholder,83,male,English,5c8986b5f82e210015e33375,Describe these results of <strong>Green Valley</strong> so as to make it appear as if there is a <strong>high</strong> success rate without lying.,all|some|right,9|9|3|3|3,In this exam,of the students got,of the questions,.,12,"%{""instances"" => [%{""n_col"" => 12, ""rows"" => [9, 9, 3, 3, 3]}], ""number"" => 12, ""sequence"" => [""BCCCC"", ""BBCCC""], ""truth_table"" => []}",Thu Jan 30 2020 12:50:39 GMT-0500 (Eastern Standard Time),1580406639028,1|1|1|1|1|1|1|1|1|0|0|0|1|1|1|1|1|1|1|1|1|0|0|0|1|1|1|0|0|0|0|0|0|0|0|0|1|1|1|0|0|0|0|0|0|0|0|0|1|1|1|0|0|0|0|0|0|0|0|0,13.642216666666666,main_trials,15
11728,,15891,21,all|most|some|none,all|most|some|none,right|wrong,5,,low,placeholder,Graduated High School,1580407457561,placeholder,83,male,English,5c8986b5f82e210015e33375,Describe these results of <strong>Riverside</strong> so as to make it appear as if there is a <strong>low</strong> success rate without lying.,some|all|wrong,12|12|12|0|0,In this exam,of the students got,of the questions,.,9,"%{""instances"" => [%{""n_col"" => 12, ""rows"" => [12, 12, 12, 0, 0]}], ""number"" => 9, ""sequence"" => [""AAADD"", ""AAAAD"", ""AAABD"", ""AAACD""], ""truth_table"" => []}",Thu Jan 30 2020 12:50:39 GMT-0500 (Eastern Standard Time),1580406639028,1|1|1|1|1|1|1|1|1|1|1|1|1|1|1|1|1|1|1|1|1|1|1|1|1|1|1|1|1|1|1|1|1|1|1|1|0|0|0|0|0|0|0|0|0|0|0|0|0|0|0|0|0|0|0|0|0|0|0|0,13.642216666666666,main_trials,16
11728,,17370,21,all|most|some|none,all|most|some|none,right|wrong,5,,low,placeholder,Graduated High School,1580407457561,placeholder,83,male,English,5c8986b5f82e210015e33375,Describe these results of <strong>Riverside</strong> so as to make it appear as if there is a <strong>low</strong> success rate without lying.,most|most|wrong,12|12|3|3|3,In this exam,of the students got,of the questions,.,13,"%{""instances"" => [%{""n_col"" => 12, ""rows"" => [12, 12, 3, 3, 3]}], ""number"" => 13, ""sequence"" => [""ACCCC"", ""AACCC"", ""ABCCC""], ""truth_table"" => []}",Thu Jan 30 2020 12:50:39 GMT-0500 (Eastern Standard Time),1580406639028,1|1|1|1|1|1|1|1|1|1|1|1|1|1|1|1|1|1|1|1|1|1|1|1|1|1|1|0|0|0|0|0|0|0|0|0|1|1|1|0|0|0|0|0|0|0|0|0|1|1|1|0|0|0|0|0|0|0|0|0,13.642216666666666,main_trials,17
11728,,17960,21,all|most|some|none,all|most|some|none,right|wrong,5,,high,placeholder,Graduated High School,1580407457561,placeholder,83,male,English,5c8986b5f82e210015e33375,Describe these results of <strong>Green Valley</strong> so as to make it appear as if there is a <strong>high</strong> success rate without lying.,most|all|right,12|12|12|9|9,In this exam,of the students got,of the questions,.,19,"%{""instances"" => [%{""n_col"" => 12, ""rows"" => '\f\f\f\t\t'}], ""number"" => 19, ""sequence"" => [""AAABB"", ""AAAAB""], ""truth_table"" => []}",Thu Jan 30 2020 12:50:39 GMT-0500 (Eastern Standard Time),1580406639028,1|1|1|1|1|1|1|1|1|1|1|1|1|1|1|1|1|1|1|1|1|1|1|1|1|1|1|1|1|1|1|1|1|1|1|1|1|1|1|1|1|1|1|1|1|0|0|0|1|1|1|1|1|1|1|1|1|0|0|0,13.642216666666666,main_trials,18
11728,,27500,21,all|most|some|none,all|most|some|none,right|wrong,5,,low,placeholder,Graduated High School,1580407457561,placeholder,83,male,English,5c8986b5f82e210015e33375,Describe these results of <strong>Riverside</strong> so as to make it appear as if there is a <strong>low</strong> success rate without lying.,most|some|wrong,12|12|9|9|9,In this exam,of the students got,of the questions,.,18,"%{""instances"" => [%{""n_col"" => 12, ""rows"" => '\f\f\t\t\t'}], ""number"" => 18, ""sequence"" => [""ABBBB"", ""AABBB""], ""truth_table"" => []}",Thu Jan 30 2020 12:50:39 GMT-0500 (Eastern Standard Time),1580406639028,1|1|1|1|1|1|1|1|1|1|1|1|1|1|1|1|1|1|1|1|1|1|1|1|1|1|1|1|1|1|1|1|1|0|0|0|1|1|1|1|1|1|1|1|1|0|0|0|1|1|1|1|1|1|1|1|1|0|0|0,13.642216666666666,main_trials,19
11728,,15466,21,all|most|some|none,all|most|some|none,right|wrong,5,,low,placeholder,Graduated High School,1580407457561,placeholder,83,male,English,5c8986b5f82e210015e33375,Describe these results of <strong>Riverside</strong> so as to make it appear as if there is a <strong>low</strong> success rate without lying.,all|some|wrong,9|9|9|9|9,In this exam,of the students got,of the questions,.,17,"%{""instances"" => [%{""n_col"" => 12, ""rows"" => '\t\t\t\t\t'}], ""number"" => 17, ""sequence"" => [""BBBBB""], ""truth_table"" => []}",Thu Jan 30 2020 12:50:39 GMT-0500 (Eastern Standard Time),1580406639028,1|1|1|1|1|1|1|1|1|0|0|0|1|1|1|1|1|1|1|1|1|0|0|0|1|1|1|1|1|1|1|1|1|0|0|0|1|1|1|1|1|1|1|1|1|0|0|0|1|1|1|1|1|1|1|1|1|0|0|0,13.642216666666666,main_trials,20
11732,,36027,59,all|most|some|none,all|most|some|none,right|wrong,5,no further comments,low,placeholder,Higher Degree,1580410479067,placeholder,83,female,English,5d51ad87e02e5500182bb86e,Describe these results of <strong>Riverside</strong> so as to make it appear as if there is a <strong>low</strong> success rate without lying.,some|some|right,9|9|3|3|3,In this exam,of the students got,of the questions,.,12,"%{""instances"" => [%{""n_col"" => 12, ""rows"" => [9, 9, 3, 3, 3]}], ""number"" => 12, ""sequence"" => [""BCCCC"", ""BBCCC""], ""truth_table"" => []}",Thu Jan 30 2020 18:45:25 GMT+0000 (Greenwich Mean Time),1580409925849,1|1|1|1|1|1|1|1|1|0|0|0|1|1|1|1|1|1|1|1|1|0|0|0|1|1|1|0|0|0|0|0|0|0|0|0|1|1|1|0|0|0|0|0|0|0|0|0|1|1|1|0|0|0|0|0|0|0|0|0,9.2203,training_trials,1
11732,,17764,59,all|most|some|none,all|most|some|none,right|wrong,5,no further comments,high,placeholder,Higher Degree,1580410479067,placeholder,83,female,English,5d51ad87e02e5500182bb86e,Describe these results of <strong>Green Valley</strong> so as to make it appear as if there is a <strong>high</strong> success rate without lying.,some|all|right,12|12|0|0|0,In this exam,of the students got,of the questions,.,4,"%{""instances"" => [%{""n_col"" => 12, ""rows"" => [12, 12, 0, 0, 0]}], ""number"" => 4, ""sequence"" => [""ADDDD"", ""AADDD"", ""ABDDD"", ""ACDDD""], ""truth_table"" => []}",Thu Jan 30 2020 18:45:25 GMT+0000 (Greenwich Mean Time),1580409925849,1|1|1|1|1|1|1|1|1|1|1|1|1|1|1|1|1|1|1|1|1|1|1|1|0|0|0|0|0|0|0|0|0|0|0|0|0|0|0|0|0|0|0|0|0|0|0|0|0|0|0|0|0|0|0|0|0|0|0|0,9.2203,training_trials,2
11732,,25379,59,all|most|some|none,all|most|some|none,right|wrong,5,no further comments,low,placeholder,Higher Degree,1580410479067,placeholder,83,female,English,5d51ad87e02e5500182bb86e,Describe these results of <strong>Riverside</strong> so as to make it appear as if there is a <strong>low</strong> success rate without lying.,most|all|wrong,12|12|0|0|0,In this exam,of the students got,of the questions,.,4,"%{""instances"" => [%{""n_col"" => 12, ""rows"" => [12, 12, 0, 0, 0]}], ""number"" => 4, ""sequence"" => [""ADDDD"", ""AADDD"", ""ABDDD"", ""ACDDD""], ""truth_table"" => []}",Thu Jan 30 2020 18:45:25 GMT+0000 (Greenwich Mean Time),1580409925849,1|1|1|1|1|1|1|1|1|1|1|1|1|1|1|1|1|1|1|1|1|1|1|1|0|0|0|0|0|0|0|0|0|0|0|0|0|0|0|0|0|0|0|0|0|0|0|0|0|0|0|0|0|0|0|0|0|0|0|0,9.2203,training_trials,3
11732,,21577,59,all|most|some|none,all|most|some|none,right|wrong,5,no further comments,high,placeholder,Higher Degree,1580410479067,placeholder,83,female,English,5d51ad87e02e5500182bb86e,Describe these results of <strong>Green Valley</strong> so as to make it appear as if there is a <strong>high</strong> success rate without lying.,all|some|right,9|9|3|3|3,In this exam,of the students got,of the questions,.,12,"%{""instances"" => [%{""n_col"" => 12, ""rows"" => [9, 9, 3, 3, 3]}], ""number"" => 12, ""sequence"" => [""BCCCC"", ""BBCCC""], ""truth_table"" => []}",Thu Jan 30 2020 18:45:25 GMT+0000 (Greenwich Mean Time),1580409925849,1|1|1|1|1|1|1|1|1|0|0|0|1|1|1|1|1|1|1|1|1|0|0|0|1|1|1|0|0|0|0|0|0|0|0|0|1|1|1|0|0|0|0|0|0|0|0|0|1|1|1|0|0|0|0|0|0|0|0|0,9.2203,training_trials,4
11732,,44570,59,all|most|some|none,all|most|some|none,right|wrong,5,no further comments,low,placeholder,Higher Degree,1580410479067,placeholder,83,female,English,5d51ad87e02e5500182bb86e,Describe these results of <strong>Riverside</strong> so as to make it appear as if there is a <strong>low</strong> success rate without lying.,none|all|wrong,12|12|12|12|12,In this exam,of the students got,of the questions,.,20,"%{""instances"" => [%{""n_col"" => 12, ""rows"" => '\f\f\f\f\f'}], ""number"" => 20, ""sequence"" => [""AAAAA""], ""truth_table"" => []}",Thu Jan 30 2020 18:45:25 GMT+0000 (Greenwich Mean Time),1580409925849,1|1|1|1|1|1|1|1|1|1|1|1|1|1|1|1|1|1|1|1|1|1|1|1|1|1|1|1|1|1|1|1|1|1|1|1|1|1|1|1|1|1|1|1|1|1|1|1|1|1|1|1|1|1|1|1|1|1|1|1,9.2203,main_trials,1
11732,,16443,59,all|most|some|none,all|most|some|none,right|wrong,5,no further comments,high,placeholder,Higher Degree,1580410479067,placeholder,83,female,English,5d51ad87e02e5500182bb86e,Describe these results of <strong>Green Valley</strong> so as to make it appear as if there is a <strong>high</strong> success rate without lying.,some|all|right,12|12|0|0|0,In this exam,of the students got,of the questions,.,4,"%{""instances"" => [%{""n_col"" => 12, ""rows"" => [12, 12, 0, 0, 0]}], ""number"" => 4, ""sequence"" => [""ADDDD"", ""AADDD"", ""ABDDD"", ""ACDDD""], ""truth_table"" => []}",Thu Jan 30 2020 18:45:25 GMT+0000 (Greenwich Mean Time),1580409925849,1|1|1|1|1|1|1|1|1|1|1|1|1|1|1|1|1|1|1|1|1|1|1|1|0|0|0|0|0|0|0|0|0|0|0|0|0|0|0|0|0|0|0|0|0|0|0|0|0|0|0|0|0|0|0|0|0|0|0|0,9.2203,main_trials,2
