submission_id,QUD,RT,age,bias,choice_options_1,choice_options_2,choice_options_3,column_number,comments,condition,correct,education,endTime,expected,experiment_id,gender,languages,prolific_id,question,response,row_number,sentence_chunk_1,sentence_chunk_2,sentence_chunk_3,sentence_chunk_4,startDate,startTime,stimulus,timeSpent,trial_name,trial_number
91,,35311,26,0.5,all|most|many|some|few|none,all|most|many|some|few|none,right|wrong,12,,low,NA,Graduated College,1571591293235,NA,4,female,english,5ac3b825e734400001da2436,Describe these results of <strong>Riverside</strong> so as to make it appear as if there is a <strong>low</strong> success rate without lying.,some|some|right,5,In this exam,of the students got,of the questions,.,Sun Oct 20 2019 18:01:08 GMT+0100 (British Summer Time),1571590868344,0|1|0|1|1|1|0|1|1|1|1|1|0|0|1|0|0|0|1|1|0|1|0|1|0|1|0|1|0|1|0|0|1|0|0|1|1|1|1|1|1|0|0|0|0|1|0|1|0|1|0|1|1|0|1|0|1|1|0|1,7.0815166666666665,training_trials,1
91,,19919,26,0.9,all|most|many|some|few|none,all|most|many|some|few|none,right|wrong,12,,high,NA,Graduated College,1571591293235,NA,4,female,english,5ac3b825e734400001da2436,Describe these results of <strong>Green Valley</strong> so as to make it appear as if there is a <strong>high</strong> success rate without lying.,many|most|right,5,In this exam,of the students got,of the questions,.,Sun Oct 20 2019 18:01:08 GMT+0100 (British Summer Time),1571590868344,0|0|0|0|0|0|0|0|0|1|0|0|0|0|0|0|0|0|0|0|0|0|0|0|0|0|0|0|0|0|0|1|0|0|0|0|0|0|0|0|1|0|0|0|0|0|0|0|0|0|1|0|0|0|0|0|0|0|0|0,7.0815166666666665,training_trials,2
91,,16331,26,0.2,all|most|many|some|few|none,all|most|many|some|few|none,right|wrong,12,,high,NA,Graduated College,1571591293235,NA,4,female,english,5ac3b825e734400001da2436,Describe these results of <strong>Green Valley</strong> so as to make it appear as if there is a <strong>high</strong> success rate without lying.,some|some|right,5,In this exam,of the students got,of the questions,.,Sun Oct 20 2019 18:01:08 GMT+0100 (British Summer Time),1571590868344,1|1|1|0|1|1|0|1|1|1|1|1|1|1|1|1|1|1|1|1|1|0|0|1|1|1|1|0|1|1|1|1|0|1|1|1|1|1|1|1|0|1|0|1|1|1|1|1|1|1|1|0|0|1|1|1|1|1|0|1,7.0815166666666665,training_trials,3
91,,13490,26,0.4,all|most|many|some|few|none,all|most|many|some|few|none,right|wrong,12,,high,placeholder,Graduated College,1571591293235,placeholder,4,female,english,5ac3b825e734400001da2436,Describe these results of <strong>Green Valley</strong> so as to make it appear as if there is a <strong>high</strong> success rate without lying.,some|some|right,5,In this exam,of the students got,of the questions,.,Sun Oct 20 2019 18:01:08 GMT+0100 (British Summer Time),1571590868344,1|1|0|1|1|1|1|0|1|1|0|0|1|0|0|1|0|1|1|0|1|0|1|0|1|1|0|0|0|1|1|1|0|0|0|0|0|1|1|1|0|0|0|1|0|0|0|1|1|1|0|1|1|0|1|0|0|1|1|0,7.0815166666666665,main_trials,1
91,,22150,26,0.3,all|most|many|some|few|none,all|most|many|some|few|none,right|wrong,12,,high,placeholder,Graduated College,1571591293235,placeholder,4,female,english,5ac3b825e734400001da2436,Describe these results of <strong>Green Valley</strong> so as to make it appear as if there is a <strong>high</strong> success rate without lying.,some|few|right,5,In this exam,of the students got,of the questions,.,Sun Oct 20 2019 18:01:08 GMT+0100 (British Summer Time),1571590868344,1|0|1|0|0|0|1|1|0|1|1|0|1|1|1|1|1|1|0|1|1|1|1|1|1|1|1|0|1|0|0|1|0|0|1|0|1|1|1|1|0|0|1|0|0|1|1|1|1|1|1|1|0|1|1|1|0|1|1|1,7.0815166666666665,main_trials,2
91,,14466,26,0.5,all|most|many|some|few|none,all|most|many|some|few|none,right|wrong,12,,low,placeholder,Graduated College,1571591293235,placeholder,4,female,english,5ac3b825e734400001da2436,Describe these results of <strong>Riverside</strong> so as to make it appear as if there is a <strong>low</strong> success rate without lying.,some|some|right,5,In this exam,of the students got,of the questions,.,Sun Oct 20 2019 18:01:08 GMT+0100 (British Summer Time),1571590868344,1|1|1|1|0|1|1|1|1|1|0|1|0|1|0|0|0|0|1|0|1|0|1|0|1|1|0|1|0|0|0|0|1|0|0|1|1|0|0|0|1|1|0|1|0|1|0|1|1|0|0|1|0|0|0|1|1|1|1|1,7.0815166666666665,main_trials,3
91,,46141,26,0.8,all|most|many|some|few|none,all|most|many|some|few|none,right|wrong,12,,low,placeholder,Graduated College,1571591293235,placeholder,4,female,english,5ac3b825e734400001da2436,Describe these results of <strong>Riverside</strong> so as to make it appear as if there is a <strong>low</strong> success rate without lying.,some|some|wrong,5,In this exam,of the students got,of the questions,.,Sun Oct 20 2019 18:01:08 GMT+0100 (British Summer Time),1571590868344,1|1|0|0|0|1|0|0|1|0|0|0|0|0|0|0|1|0|0|0|0|0|0|0|0|0|0|0|0|0|0|0|1|0|0|0|0|0|1|0|0|1|0|0|1|1|0|0|0|0|0|0|0|0|0|0|0|0|0|1,7.0815166666666665,main_trials,4
91,,11347,26,0.5,all|most|many|some|few|none,all|most|many|some|few|none,right|wrong,12,,high,placeholder,Graduated College,1571591293235,placeholder,4,female,english,5ac3b825e734400001da2436,Describe these results of <strong>Green Valley</strong> so as to make it appear as if there is a <strong>high</strong> success rate without lying.,some|some|wrong,5,In this exam,of the students got,of the questions,.,Sun Oct 20 2019 18:01:08 GMT+0100 (British Summer Time),1571590868344,1|0|0|1|1|1|1|1|0|0|1|0|0|1|1|1|1|0|0|1|0|1|0|0|0|0|0|1|0|1|0|1|1|0|1|0|1|0|1|0|1|1|0|1|1|1|1|0|0|1|0|0|1|0|0|0|1|1|1|1,7.0815166666666665,main_trials,5
91,,11337,26,0.7,all|most|many|some|few|none,all|most|many|some|few|none,right|wrong,12,,high,placeholder,Graduated College,1571591293235,placeholder,4,female,english,5ac3b825e734400001da2436,Describe these results of <strong>Green Valley</strong> so as to make it appear as if there is a <strong>high</strong> success rate without lying.,many|most|right,5,In this exam,of the students got,of the questions,.,Sun Oct 20 2019 18:01:08 GMT+0100 (British Summer Time),1571590868344,0|0|0|1|0|0|0|0|1|0|1|0|0|1|0|0|1|1|1|1|0|0|0|0|0|0|0|0|0|1|1|0|0|0|1|0|0|0|1|0|1|0|1|0|0|0|0|1|1|0|0|1|0|0|0|0|0|1|0|1,7.0815166666666665,main_trials,6
91,,22625,26,0.6,all|most|many|some|few|none,all|most|many|some|few|none,right|wrong,12,,high,placeholder,Graduated College,1571591293235,placeholder,4,female,english,5ac3b825e734400001da2436,Describe these results of <strong>Green Valley</strong> so as to make it appear as if there is a <strong>high</strong> success rate without lying.,many|few|wrong,5,In this exam,of the students got,of the questions,.,Sun Oct 20 2019 18:01:08 GMT+0100 (British Summer Time),1571590868344,1|0|0|1|0|0|0|0|1|0|0|0|1|1|1|0|1|1|1|1|1|1|1|0|0|0|1|1|0|1|1|1|1|0|1|0|0|0|0|1|1|1|0|1|0|1|1|0|1|0|1|0|0|1|1|0|1|1|0|0,7.0815166666666665,main_trials,7
91,,14356,26,0.2,all|most|many|some|few|none,all|most|many|some|few|none,right|wrong,12,,low,placeholder,Graduated College,1571591293235,placeholder,4,female,english,5ac3b825e734400001da2436,Describe these results of <strong>Riverside</strong> so as to make it appear as if there is a <strong>low</strong> success rate without lying.,some|some|right,5,In this exam,of the students got,of the questions,.,Sun Oct 20 2019 18:01:08 GMT+0100 (British Summer Time),1571590868344,1|0|1|1|0|1|1|1|1|1|1|1|1|1|1|1|1|1|1|1|0|1|1|1|1|0|0|1|1|1|1|0|1|0|1|1|0|0|0|1|0|1|1|1|1|0|0|0|1|1|0|1|1|1|1|1|1|0|1|1,7.0815166666666665,main_trials,8
91,,17288,26,0.2,all|most|many|some|few|none,all|most|many|some|few|none,right|wrong,12,,high,placeholder,Graduated College,1571591293235,placeholder,4,female,english,5ac3b825e734400001da2436,Describe these results of <strong>Green Valley</strong> so as to make it appear as if there is a <strong>high</strong> success rate without lying.,few|all|right,5,In this exam,of the students got,of the questions,.,Sun Oct 20 2019 18:01:08 GMT+0100 (British Summer Time),1571590868344,1|0|1|0|1|1|1|1|1|1|0|0|1|1|1|0|1|0|0|0|1|1|1|1|0|1|1|1|1|1|1|0|0|1|1|1|1|1|1|1|1|1|0|1|0|0|1|1|1|1|0|1|1|1|0|0|1|0|1|0,7.0815166666666665,main_trials,9
91,,11277,26,0.8,all|most|many|some|few|none,all|most|many|some|few|none,right|wrong,12,,high,placeholder,Graduated College,1571591293235,placeholder,4,female,english,5ac3b825e734400001da2436,Describe these results of <strong>Green Valley</strong> so as to make it appear as if there is a <strong>high</strong> success rate without lying.,most|many|right,5,In this exam,of the students got,of the questions,.,Sun Oct 20 2019 18:01:08 GMT+0100 (British Summer Time),1571590868344,0|0|0|0|0|1|0|0|0|0|0|0|0|0|0|0|0|1|1|0|0|0|0|0|1|0|0|0|0|0|0|0|0|0|0|1|0|0|0|0|0|0|0|1|1|0|1|0|0|1|0|0|0|0|0|0|0|1|0|0,7.0815166666666665,main_trials,10
91,,20193,26,0.6,all|most|many|some|few|none,all|most|many|some|few|none,right|wrong,12,,low,placeholder,Graduated College,1571591293235,placeholder,4,female,english,5ac3b825e734400001da2436,Describe these results of <strong>Riverside</strong> so as to make it appear as if there is a <strong>low</strong> success rate without lying.,many|few|wrong,5,In this exam,of the students got,of the questions,.,Sun Oct 20 2019 18:01:08 GMT+0100 (British Summer Time),1571590868344,0|0|0|0|1|1|0|0|0|1|1|1|0|0|0|0|1|1|1|0|0|1|0|0|1|1|1|0|1|1|1|0|1|1|1|0|0|0|0|1|0|0|1|1|0|0|1|0|0|1|0|1|1|1|1|0|1|1|0|1,7.0815166666666665,main_trials,11
91,,11913,26,0.7,all|most|many|some|few|none,all|most|many|some|few|none,right|wrong,12,,low,placeholder,Graduated College,1571591293235,placeholder,4,female,english,5ac3b825e734400001da2436,Describe these results of <strong>Riverside</strong> so as to make it appear as if there is a <strong>low</strong> success rate without lying.,few|most|right,5,In this exam,of the students got,of the questions,.,Sun Oct 20 2019 18:01:08 GMT+0100 (British Summer Time),1571590868344,0|0|1|1|0|0|0|1|0|0|0|0|0|0|0|1|0|1|0|0|0|0|1|1|0|0|0|0|0|0|0|0|0|1|0|0|0|0|0|0|1|0|0|0|0|0|1|0|0|1|1|0|1|0|1|0|0|0|0|0,7.0815166666666665,main_trials,12
91,,32331,26,0.3,all|most|many|some|few|none,all|most|many|some|few|none,right|wrong,12,,low,placeholder,Graduated College,1571591293235,placeholder,4,female,english,5ac3b825e734400001da2436,Describe these results of <strong>Riverside</strong> so as to make it appear as if there is a <strong>low</strong> success rate without lying.,few|most|right,5,In this exam,of the students got,of the questions,.,Sun Oct 20 2019 18:01:08 GMT+0100 (British Summer Time),1571590868344,1|0|1|1|1|1|1|1|0|0|1|1|1|0|1|1|1|1|0|0|1|1|0|1|1|1|1|1|1|0|1|0|1|0|1|1|0|0|1|1|1|1|0|1|0|1|1|0|0|0|0|1|0|0|0|0|1|1|1|1,7.0815166666666665,main_trials,13
91,,62260,26,0.4,all|most|many|some|few|none,all|most|many|some|few|none,right|wrong,12,,low,placeholder,Graduated College,1571591293235,placeholder,4,female,english,5ac3b825e734400001da2436,Describe these results of <strong>Riverside</strong> so as to make it appear as if there is a <strong>low</strong> success rate without lying.,most|few|right,5,In this exam,of the students got,of the questions,.,Sun Oct 20 2019 18:01:08 GMT+0100 (British Summer Time),1571590868344,0|1|0|0|0|1|1|1|0|1|0|0|1|1|1|1|1|1|1|0|0|1|0|1|0|0|0|1|0|0|1|1|1|1|1|1|1|0|0|0|0|0|0|1|1|1|1|0|1|0|1|1|1|0|1|0|1|0|1|1,7.0815166666666665,main_trials,14
90,,23619,38,0.9,all|most|many|some|few|none,all|most|many|some|few|none,right|wrong,12,,high,NA,Higher Degree,1571590391583,NA,4,male,english,5563984afdf99b672b5749b6,Describe these results of <strong>Green Valley</strong> so as to make it appear as if there is a <strong>high</strong> success rate without lying.,most|most|right,5,In this exam,of the students got,of the questions,.,Sun Oct 20 2019 09:13:17 GMT-0700 (heure d’été du Pacifique),1571587997267,0|0|0|0|0|0|0|0|0|0|0|0|0|0|0|1|0|0|0|0|0|0|0|0|1|0|0|0|0|1|0|1|0|0|0|0|0|0|0|0|0|0|0|0|0|0|0|0|0|0|0|0|0|0|0|0|1|0|1|0,39.90526666666667,training_trials,1
90,,15994,38,0.5,all|most|many|some|few|none,all|most|many|some|few|none,right|wrong,12,,low,NA,Higher Degree,1571590391583,NA,4,male,english,5563984afdf99b672b5749b6,Describe these results of <strong>Riverside</strong> so as to make it appear as if there is a <strong>low</strong> success rate without lying.,many|many|wrong,5,In this exam,of the students got,of the questions,.,Sun Oct 20 2019 09:13:17 GMT-0700 (heure d’été du Pacifique),1571587997267,0|1|0|1|1|1|0|0|1|1|1|0|1|1|1|1|0|1|0|0|1|0|0|1|0|0|1|1|0|1|0|0|0|1|0|1|1|1|0|0|0|0|1|1|0|0|1|0|0|1|1|0|0|1|0|0|0|0|1|0,39.90526666666667,training_trials,2
90,,15340,38,0.2,all|most|many|some|few|none,all|most|many|some|few|none,right|wrong,12,,high,NA,Higher Degree,1571590391583,NA,4,male,english,5563984afdf99b672b5749b6,Describe these results of <strong>Green Valley</strong> so as to make it appear as if there is a <strong>high</strong> success rate without lying.,few|few|wrong,5,In this exam,of the students got,of the questions,.,Sun Oct 20 2019 09:13:17 GMT-0700 (heure d’été du Pacifique),1571587997267,1|1|1|0|0|1|1|1|0|0|1|1|1|1|1|0|1|0|1|1|0|1|1|0|1|1|1|0|1|1|1|1|1|1|1|1|0|0|1|0|1|0|1|1|1|0|1|1|1|1|0|1|1|1|0|1|1|1|1|1,39.90526666666667,training_trials,3
90,,7500,38,0.5,all|most|many|some|few|none,all|most|many|some|few|none,right|wrong,12,,low,placeholder,Higher Degree,1571590391583,placeholder,4,male,english,5563984afdf99b672b5749b6,Describe these results of <strong>Riverside</strong> so as to make it appear as if there is a <strong>low</strong> success rate without lying.,most|most|wrong,5,In this exam,of the students got,of the questions,.,Sun Oct 20 2019 09:13:17 GMT-0700 (heure d’été du Pacifique),1571587997267,1|0|0|0|0|0|1|1|0|1|0|1|0|0|0|1|1|0|1|1|1|0|0|1|0|1|0|1|1|0|1|0|0|0|0|0|1|0|0|1|0|0|1|0|0|0|1|0|0|1|1|0|1|1|1|0|0|0|1|0,39.90526666666667,main_trials,1
90,,7404,38,0.5,all|most|many|some|few|none,all|most|many|some|few|none,right|wrong,12,,high,placeholder,Higher Degree,1571590391583,placeholder,4,male,english,5563984afdf99b672b5749b6,Describe these results of <strong>Green Valley</strong> so as to make it appear as if there is a <strong>high</strong> success rate without lying.,many|many|right,5,In this exam,of the students got,of the questions,.,Sun Oct 20 2019 09:13:17 GMT-0700 (heure d’été du Pacifique),1571587997267,1|0|1|0|1|1|1|1|0|1|0|1|1|0|1|0|1|0|1|0|0|1|1|0|1|1|1|1|1|1|1|1|0|0|1|0|0|1|1|1|0|1|0|0|1|0|1|1|0|1|0|0|0|1|0|0|0|0|0|0,39.90526666666667,main_trials,2
90,,15270,38,0.2,all|most|many|some|few|none,all|most|many|some|few|none,right|wrong,12,,high,placeholder,Higher Degree,1571590391583,placeholder,4,male,english,5563984afdf99b672b5749b6,Describe these results of <strong>Green Valley</strong> so as to make it appear as if there is a <strong>high</strong> success rate without lying.,few|few|wrong,5,In this exam,of the students got,of the questions,.,Sun Oct 20 2019 09:13:17 GMT-0700 (heure d’été du Pacifique),1571587997267,1|0|0|1|1|1|1|1|1|1|1|1|1|0|0|1|0|1|1|1|0|1|1|1|1|1|1|1|1|1|1|1|1|1|1|1|1|1|1|1|0|1|1|1|1|1|0|1|1|1|0|0|1|0|1|1|1|1|1|1,39.90526666666667,main_trials,3
90,,7293,38,0.3,all|most|many|some|few|none,all|most|many|some|few|none,right|wrong,12,,high,placeholder,Higher Degree,1571590391583,placeholder,4,male,english,5563984afdf99b672b5749b6,Describe these results of <strong>Green Valley</strong> so as to make it appear as if there is a <strong>high</strong> success rate without lying.,few|few|wrong,5,In this exam,of the students got,of the questions,.,Sun Oct 20 2019 09:13:17 GMT-0700 (heure d’été du Pacifique),1571587997267,0|1|1|1|1|1|1|1|0|0|1|1|1|0|1|1|1|0|1|1|1|1|1|1|0|0|0|1|0|1|0|0|1|0|1|1|1|1|1|0|1|1|1|1|0|1|1|1|1|1|1|1|0|1|1|0|0|0|1|1,39.90526666666667,main_trials,4
90,,7613,38,0.6,all|most|many|some|few|none,all|most|many|some|few|none,right|wrong,12,,low,placeholder,Higher Degree,1571590391583,placeholder,4,male,english,5563984afdf99b672b5749b6,Describe these results of <strong>Riverside</strong> so as to make it appear as if there is a <strong>low</strong> success rate without lying.,many|many|wrong,5,In this exam,of the students got,of the questions,.,Sun Oct 20 2019 09:13:17 GMT-0700 (heure d’été du Pacifique),1571587997267,0|0|0|0|0|0|1|0|0|1|0|0|1|1|0|0|0|0|0|0|0|1|0|0|0|1|1|0|0|0|1|0|0|1|1|1|0|1|0|0|1|1|0|0|0|0|1|1|1|1|0|1|1|1|1|0|1|0|0|0,39.90526666666667,main_trials,5
90,,5972,38,0.8,all|most|many|some|few|none,all|most|many|some|few|none,right|wrong,12,,low,placeholder,Higher Degree,1571590391583,placeholder,4,male,english,5563984afdf99b672b5749b6,Describe these results of <strong>Riverside</strong> so as to make it appear as if there is a <strong>low</strong> success rate without lying.,some|some|wrong,5,In this exam,of the students got,of the questions,.,Sun Oct 20 2019 09:13:17 GMT-0700 (heure d’été du Pacifique),1571587997267,0|0|0|0|0|0|0|0|0|0|0|0|0|0|0|0|0|0|0|0|0|0|1|0|1|0|0|1|0|0|0|0|0|0|0|0|0|0|0|0|0|1|1|1|0|1|0|0|1|1|0|0|0|0|0|1|0|0|0|1,39.90526666666667,main_trials,6
90,,10009,38,0.2,all|most|many|some|few|none,all|most|many|some|few|none,right|wrong,12,,low,placeholder,Higher Degree,1571590391583,placeholder,4,male,english,5563984afdf99b672b5749b6,Describe these results of <strong>Riverside</strong> so as to make it appear as if there is a <strong>low</strong> success rate without lying.,most|most|wrong,5,In this exam,of the students got,of the questions,.,Sun Oct 20 2019 09:13:17 GMT-0700 (heure d’été du Pacifique),1571587997267,1|1|1|0|1|1|0|0|1|0|1|0|1|0|0|1|1|1|1|1|0|1|1|1|1|0|0|1|1|0|1|1|1|1|0|1|1|0|1|1|0|1|0|1|0|1|1|0|1|1|1|1|1|0|1|1|1|0|1|1,39.90526666666667,main_trials,7
90,,8692,38,0.3,all|most|many|some|few|none,all|most|many|some|few|none,right|wrong,12,,low,placeholder,Higher Degree,1571590391583,placeholder,4,male,english,5563984afdf99b672b5749b6,Describe these results of <strong>Riverside</strong> so as to make it appear as if there is a <strong>low</strong> success rate without lying.,most|most|wrong,5,In this exam,of the students got,of the questions,.,Sun Oct 20 2019 09:13:17 GMT-0700 (heure d’été du Pacifique),1571587997267,1|1|1|1|0|1|1|1|0|1|0|1|1|1|0|1|0|1|1|1|0|1|1|0|1|1|1|1|1|1|0|1|1|1|0|1|1|1|0|1|0|0|0|1|1|1|1|1|1|0|0|1|1|1|0|1|0|0|0|1,39.90526666666667,main_trials,8
90,,7781,38,0.4,all|most|many|some|few|none,all|most|many|some|few|none,right|wrong,12,,high,placeholder,Higher Degree,1571590391583,placeholder,4,male,english,5563984afdf99b672b5749b6,Describe these results of <strong>Green Valley</strong> so as to make it appear as if there is a <strong>high</strong> success rate without lying.,many|many|right,5,In this exam,of the students got,of the questions,.,Sun Oct 20 2019 09:13:17 GMT-0700 (heure d’été du Pacifique),1571587997267,1|0|0|0|0|1|1|1|0|1|1|0|1|0|1|0|1|1|1|1|1|1|0|1|1|1|0|0|1|1|1|0|0|1|0|0|0|1|0|0|1|1|0|1|1|1|0|0|1|0|1|1|0|1|1|0|1|1|0|0,39.90526666666667,main_trials,9
90,,5107,38,0.7,all|most|many|some|few|none,all|most|many|some|few|none,right|wrong,12,,low,placeholder,Higher Degree,1571590391583,placeholder,4,male,english,5563984afdf99b672b5749b6,Describe these results of <strong>Riverside</strong> so as to make it appear as if there is a <strong>low</strong> success rate without lying.,some|some|wrong,5,In this exam,of the students got,of the questions,.,Sun Oct 20 2019 09:13:17 GMT-0700 (heure d’été du Pacifique),1571587997267,0|0|1|0|0|0|0|0|1|0|1|0|0|0|0|0|0|0|0|0|1|0|0|0|0|0|1|0|0|0|0|0|0|0|1|1|0|0|0|1|0|1|1|0|1|0|0|0|0|0|0|0|0|0|1|0|0|0|0|1,39.90526666666667,main_trials,10
90,,6492,38,0.7,all|most|many|some|few|none,all|most|many|some|few|none,right|wrong,12,,high,placeholder,Higher Degree,1571590391583,placeholder,4,male,english,5563984afdf99b672b5749b6,Describe these results of <strong>Green Valley</strong> so as to make it appear as if there is a <strong>high</strong> success rate without lying.,most|most|right,5,In this exam,of the students got,of the questions,.,Sun Oct 20 2019 09:13:17 GMT-0700 (heure d’été du Pacifique),1571587997267,0|0|0|1|0|0|0|0|0|0|1|0|0|1|0|1|0|0|0|0|0|1|1|0|1|1|1|1|0|0|0|0|0|0|0|1|1|0|0|0|1|1|0|1|0|0|1|0|0|0|0|1|1|0|0|0|0|1|1|0,39.90526666666667,main_trials,11
90,,6956,38,0.8,all|most|many|some|few|none,all|most|many|some|few|none,right|wrong,12,,high,placeholder,Higher Degree,1571590391583,placeholder,4,male,english,5563984afdf99b672b5749b6,Describe these results of <strong>Green Valley</strong> so as to make it appear as if there is a <strong>high</strong> success rate without lying.,most|most|right,5,In this exam,of the students got,of the questions,.,Sun Oct 20 2019 09:13:17 GMT-0700 (heure d’été du Pacifique),1571587997267,0|0|0|0|1|0|0|0|1|1|0|0|0|0|0|1|0|0|0|0|0|0|0|0|0|1|0|0|0|0|0|0|1|0|1|0|0|1|0|1|0|0|0|0|1|0|0|0|0|0|1|1|1|0|0|1|0|0|0|0,39.90526666666667,main_trials,12
90,,3994,38,0.4,all|most|many|some|few|none,all|most|many|some|few|none,right|wrong,12,,low,placeholder,Higher Degree,1571590391583,placeholder,4,male,english,5563984afdf99b672b5749b6,Describe these results of <strong>Riverside</strong> so as to make it appear as if there is a <strong>low</strong> success rate without lying.,many|many|wrong,5,In this exam,of the students got,of the questions,.,Sun Oct 20 2019 09:13:17 GMT-0700 (heure d’été du Pacifique),1571587997267,1|1|1|1|0|0|0|1|0|0|1|1|1|1|1|1|1|1|0|0|1|1|0|1|1|1|0|1|0|0|0|1|1|0|1|1|1|0|0|1|1|1|0|1|1|1|0|1|1|0|1|0|1|1|1|1|1|1|1|1,39.90526666666667,main_trials,13
90,,6787,38,0.6,all|most|many|some|few|none,all|most|many|some|few|none,right|wrong,12,,high,placeholder,Higher Degree,1571590391583,placeholder,4,male,english,5563984afdf99b672b5749b6,Describe these results of <strong>Green Valley</strong> so as to make it appear as if there is a <strong>high</strong> success rate without lying.,most|most|right,5,In this exam,of the students got,of the questions,.,Sun Oct 20 2019 09:13:17 GMT-0700 (heure d’été du Pacifique),1571587997267,1|0|1|0|1|0|1|0|1|1|1|0|0|0|0|0|1|1|1|0|1|1|0|0|1|0|0|1|0|0|1|0|0|1|1|0|1|0|0|1|1|1|0|0|1|1|1|0|0|1|1|0|1|0|1|0|0|0|0|0,39.90526666666667,main_trials,14
89,,129414,22,0.2,all|most|many|some|few|none,all|most|many|some|few|none,right|wrong,12,,high,NA,,1571589030723,NA,4,other,English,5d9a50083f8a4c03723b93b1,Describe these results of <strong>Green Valley</strong> so as to make it appear as if there is a <strong>high</strong> success rate without lying.,none|all|wrong,5,In this exam,of the students got,of the questions,.,Sun Oct 20 2019 17:13:15 GMT+0100 (British Summer Time),1571587995133,1|1|1|0|1|1|1|0|1|0|1|1|0|1|1|1|1|1|0|0|1|1|1|1|1|1|1|1|1|1|1|1|0|1|1|0|1|1|0|1|1|1|0|1|1|1|0|1|1|0|1|1|1|1|1|1|1|1|0|1,17.259833333333333,training_trials,1
89,,27811,22,0.9,all|most|many|some|few|none,all|most|many|some|few|none,right|wrong,12,,high,NA,,1571589030723,NA,4,other,English,5d9a50083f8a4c03723b93b1,Describe these results of <strong>Green Valley</strong> so as to make it appear as if there is a <strong>high</strong> success rate without lying.,most|all|right,5,In this exam,of the students got,of the questions,.,Sun Oct 20 2019 17:13:15 GMT+0100 (British Summer Time),1571587995133,0|0|0|0|0|0|0|0|0|0|0|0|0|0|0|0|0|0|1|0|0|0|1|0|0|0|0|0|0|1|0|0|0|0|0|0|0|0|0|0|0|0|0|0|0|0|0|0|0|0|0|0|0|0|0|0|0|0|0|0,17.259833333333333,training_trials,2
89,,119170,22,0.5,all|most|many|some|few|none,all|most|many|some|few|none,right|wrong,12,,low,NA,,1571589030723,NA,4,other,English,5d9a50083f8a4c03723b93b1,Describe these results of <strong>Riverside</strong> so as to make it appear as if there is a <strong>low</strong> success rate without lying.,most|many|wrong,5,In this exam,of the students got,of the questions,.,Sun Oct 20 2019 17:13:15 GMT+0100 (British Summer Time),1571587995133,1|1|1|0|1|0|1|1|0|0|1|0|0|0|0|1|1|1|1|0|1|0|1|0|1|1|0|1|1|0|1|1|0|0|1|0|1|0|1|1|1|0|0|0|0|0|0|0|0|1|1|0|0|1|1|0|1|1|0|1,17.259833333333333,training_trials,3
89,,66123,22,0.8,all|most|many|some|few|none,all|most|many|some|few|none,right|wrong,12,,low,placeholder,,1571589030723,placeholder,4,other,English,5d9a50083f8a4c03723b93b1,Describe these results of <strong>Riverside</strong> so as to make it appear as if there is a <strong>low</strong> success rate without lying.,few|all|right,5,In this exam,of the students got,of the questions,.,Sun Oct 20 2019 17:13:15 GMT+0100 (British Summer Time),1571587995133,0|1|1|0|1|1|0|0|0|0|0|0|0|0|0|0|0|0|0|1|0|0|0|1|0|0|0|0|0|0|0|0|0|0|0|0|1|0|0|1|0|0|0|1|0|0|0|0|1|0|1|0|0|0|0|0|0|0|0|0,17.259833333333333,main_trials,1
89,,31589,22,0.8,all|most|many|some|few|none,all|most|many|some|few|none,right|wrong,12,,high,placeholder,,1571589030723,placeholder,4,other,English,5d9a50083f8a4c03723b93b1,Describe these results of <strong>Green Valley</strong> so as to make it appear as if there is a <strong>high</strong> success rate without lying.,all|most|right,5,In this exam,of the students got,of the questions,.,Sun Oct 20 2019 17:13:15 GMT+0100 (British Summer Time),1571587995133,0|0|0|0|1|0|0|0|0|0|0|0|0|1|0|0|0|1|0|1|0|1|0|1|0|0|0|0|1|0|0|0|0|0|0|0|0|0|0|0|0|0|1|0|0|0|0|0|1|0|0|1|0|0|0|1|0|0|0|0,17.259833333333333,main_trials,2
89,,61021,22,0.5,all|most|many|some|few|none,all|most|many|some|few|none,right|wrong,12,,low,placeholder,,1571589030723,placeholder,4,other,English,5d9a50083f8a4c03723b93b1,Describe these results of <strong>Riverside</strong> so as to make it appear as if there is a <strong>low</strong> success rate without lying.,many|most|wrong,5,In this exam,of the students got,of the questions,.,Sun Oct 20 2019 17:13:15 GMT+0100 (British Summer Time),1571587995133,1|1|1|1|0|0|1|0|1|1|0|1|0|1|0|1|0|0|0|1|1|0|0|0|1|0|1|0|1|1|1|0|0|1|0|1|0|1|1|0|1|0|1|1|0|1|0|0|0|1|1|0|0|0|0|1|0|0|1|0,17.259833333333333,main_trials,3
89,,64480,22,0.6,all|most|many|some|few|none,all|most|many|some|few|none,right|wrong,12,,high,placeholder,,1571589030723,placeholder,4,other,English,5d9a50083f8a4c03723b93b1,Describe these results of <strong>Green Valley</strong> so as to make it appear as if there is a <strong>high</strong> success rate without lying.,all|many|right,5,In this exam,of the students got,of the questions,.,Sun Oct 20 2019 17:13:15 GMT+0100 (British Summer Time),1571587995133,0|0|0|0|1|0|0|0|0|1|1|0|0|1|1|0|1|0|0|1|0|0|0|0|0|0|0|0|1|0|0|1|0|1|0|1|0|1|1|0|0|0|1|0|1|0|0|1|0|0|1|1|1|0|1|0|0|0|0|0,17.259833333333333,main_trials,4
89,,41969,22,0.7,all|most|many|some|few|none,all|most|many|some|few|none,right|wrong,12,,low,placeholder,,1571589030723,placeholder,4,other,English,5d9a50083f8a4c03723b93b1,Describe these results of <strong>Riverside</strong> so as to make it appear as if there is a <strong>low</strong> success rate without lying.,few|most|right,5,In this exam,of the students got,of the questions,.,Sun Oct 20 2019 17:13:15 GMT+0100 (British Summer Time),1571587995133,1|1|1|0|0|0|1|0|0|0|0|0|0|0|0|1|0|0|0|0|0|1|0|0|0|0|0|0|0|0|0|0|0|0|0|0|0|1|1|1|0|1|1|1|0|0|0|1|0|0|1|0|0|1|1|0|0|0|0|0,17.259833333333333,main_trials,5
89,,29922,22,0.2,all|most|many|some|few|none,all|most|many|some|few|none,right|wrong,12,,low,placeholder,,1571589030723,placeholder,4,other,English,5d9a50083f8a4c03723b93b1,Describe these results of <strong>Riverside</strong> so as to make it appear as if there is a <strong>low</strong> success rate without lying.,most|most|wrong,5,In this exam,of the students got,of the questions,.,Sun Oct 20 2019 17:13:15 GMT+0100 (British Summer Time),1571587995133,1|1|0|1|0|1|1|0|1|1|0|1|1|1|1|1|1|1|1|1|1|1|0|1|1|0|1|0|1|1|1|1|1|0|1|1|1|1|1|1|1|0|0|1|1|1|1|1|1|1|1|1|1|1|1|1|0|1|1|0,17.259833333333333,main_trials,6
89,,43455,22,0.3,all|most|many|some|few|none,all|most|many|some|few|none,right|wrong,12,,low,placeholder,,1571589030723,placeholder,4,other,English,5d9a50083f8a4c03723b93b1,Describe these results of <strong>Riverside</strong> so as to make it appear as if there is a <strong>low</strong> success rate without lying.,many|most|wrong,5,In this exam,of the students got,of the questions,.,Sun Oct 20 2019 17:13:15 GMT+0100 (British Summer Time),1571587995133,0|0|1|1|1|1|1|0|1|1|1|1|1|1|0|1|1|1|1|1|1|1|1|0|0|1|0|1|1|0|0|1|1|0|1|0|1|1|1|1|0|0|1|0|0|0|1|1|1|1|1|1|0|0|0|1|1|0|0|1,17.259833333333333,main_trials,7
89,,30113,22,0.2,all|most|many|some|few|none,all|most|many|some|few|none,right|wrong,12,,high,placeholder,,1571589030723,placeholder,4,other,English,5d9a50083f8a4c03723b93b1,Describe these results of <strong>Green Valley</strong> so as to make it appear as if there is a <strong>high</strong> success rate without lying.,none|all|wrong,5,In this exam,of the students got,of the questions,.,Sun Oct 20 2019 17:13:15 GMT+0100 (British Summer Time),1571587995133,1|1|1|1|0|1|1|1|1|1|1|1|1|1|1|1|1|1|1|1|0|0|1|1|1|1|0|1|0|0|1|1|1|0|1|1|0|1|1|0|1|0|1|1|1|1|1|1|1|1|1|1|1|1|1|1|1|1|1|0,17.259833333333333,main_trials,8
89,,24400,22,0.7,all|most|many|some|few|none,all|most|many|some|few|none,right|wrong,12,,high,placeholder,,1571589030723,placeholder,4,other,English,5d9a50083f8a4c03723b93b1,Describe these results of <strong>Green Valley</strong> so as to make it appear as if there is a <strong>high</strong> success rate without lying.,all|most|right,5,In this exam,of the students got,of the questions,.,Sun Oct 20 2019 17:13:15 GMT+0100 (British Summer Time),1571587995133,0|0|1|0|1|0|0|0|1|0|0|0|0|0|0|0|1|0|1|0|0|1|0|0|0|0|0|0|0|0|0|1|0|0|0|1|0|0|0|0|1|0|1|0|0|0|0|0|0|0|0|0|1|0|1|0|0|0|1|0,17.259833333333333,main_trials,9
89,,56420,22,0.4,all|most|many|some|few|none,all|most|many|some|few|none,right|wrong,12,,high,placeholder,,1571589030723,placeholder,4,other,English,5d9a50083f8a4c03723b93b1,Describe these results of <strong>Green Valley</strong> so as to make it appear as if there is a <strong>high</strong> success rate without lying.,some|many|right,5,In this exam,of the students got,of the questions,.,Sun Oct 20 2019 17:13:15 GMT+0100 (British Summer Time),1571587995133,0|0|0|1|0|1|1|0|1|1|0|1|1|0|1|0|1|1|1|1|1|1|1|1|1|1|1|1|1|0|1|1|1|0|1|0|0|0|1|1|0|1|1|1|1|1|1|0|1|0|1|0|0|0|1|0|0|1|1|1,17.259833333333333,main_trials,10
89,,45503,22,0.3,all|most|many|some|few|none,all|most|many|some|few|none,right|wrong,12,,high,placeholder,,1571589030723,placeholder,4,other,English,5d9a50083f8a4c03723b93b1,Describe these results of <strong>Green Valley</strong> so as to make it appear as if there is a <strong>high</strong> success rate without lying.,few|most|wrong,5,In this exam,of the students got,of the questions,.,Sun Oct 20 2019 17:13:15 GMT+0100 (British Summer Time),1571587995133,0|0|0|1|0|1|1|0|0|1|1|1|1|1|1|1|1|1|1|1|1|1|1|0|0|1|1|1|0|1|1|0|1|1|1|1|0|1|0|0|1|1|1|1|0|0|1|0|0|1|1|0|0|1|1|1|1|0|1|1,17.259833333333333,main_trials,11
89,,81092,22,0.5,all|most|many|some|few|none,all|most|many|some|few|none,right|wrong,12,,high,placeholder,,1571589030723,placeholder,4,other,English,5d9a50083f8a4c03723b93b1,Describe these results of <strong>Green Valley</strong> so as to make it appear as if there is a <strong>high</strong> success rate without lying.,none|most|wrong,5,In this exam,of the students got,of the questions,.,Sun Oct 20 2019 17:13:15 GMT+0100 (British Summer Time),1571587995133,1|0|0|1|0|1|1|0|1|1|0|1|0|0|1|1|1|0|1|0|1|0|0|0|0|0|1|1|1|1|1|0|1|0|1|0|1|0|0|0|1|1|0|1|1|1|0|1|0|1|1|0|0|1|1|0|0|0|0|0,17.259833333333333,main_trials,12
89,,29937,22,0.4,all|most|many|some|few|none,all|most|many|some|few|none,right|wrong,12,,low,placeholder,,1571589030723,placeholder,4,other,English,5d9a50083f8a4c03723b93b1,Describe these results of <strong>Riverside</strong> so as to make it appear as if there is a <strong>low</strong> success rate without lying.,most|many|wrong,5,In this exam,of the students got,of the questions,.,Sun Oct 20 2019 17:13:15 GMT+0100 (British Summer Time),1571587995133,0|1|0|1|0|1|1|1|1|0|1|1|1|1|1|1|1|1|1|0|1|1|1|1|0|0|1|1|0|1|0|1|1|0|0|1|0|1|0|0|1|0|1|1|0|1|1|0|1|0|1|1|0|1|0|0|1|1|1|0,17.259833333333333,main_trials,13
89,,39612,22,0.6,all|most|many|some|few|none,all|most|many|some|few|none,right|wrong,12,,low,placeholder,,1571589030723,placeholder,4,other,English,5d9a50083f8a4c03723b93b1,Describe these results of <strong>Riverside</strong> so as to make it appear as if there is a <strong>low</strong> success rate without lying.,some|some|wrong,5,In this exam,of the students got,of the questions,.,Sun Oct 20 2019 17:13:15 GMT+0100 (British Summer Time),1571587995133,0|0|0|1|1|0|0|1|1|0|1|1|0|0|1|0|1|1|0|0|0|0|0|0|0|0|0|0|0|1|0|0|0|0|0|1|0|1|1|0|0|0|0|0|1|0|0|0|1|1|0|0|0|0|0|0|0|1|0|1,17.259833333333333,main_trials,14
88,,80017,51,0.2,all|most|many|some|few|none,all|most|many|some|few|none,right|wrong,12,,high,NA,Graduated High School,1571588945397,NA,4,male,English,5ca9f8926025570001c872f3,Describe these results of <strong>Green Valley</strong> so as to make it appear as if there is a <strong>high</strong> success rate without lying.,all|many|right,5,In this exam,of the students got,of the questions,.,Sun Oct 20 2019 17:13:30 GMT+0100 (British Summer Time),1571588010684,1|0|1|0|1|1|0|1|1|1|1|1|1|1|1|1|1|1|1|1|1|0|1|0|0|1|1|1|0|1|0|0|1|1|0|1|1|1|1|1|0|0|0|1|0|1|1|1|1|0|1|1|1|1|0|1|1|1|0|1,15.57855,training_trials,1
88,,50114,51,0.5,all|most|many|some|few|none,all|most|many|some|few|none,right|wrong,12,,low,NA,Graduated High School,1571588945397,NA,4,male,English,5ca9f8926025570001c872f3,Describe these results of <strong>Riverside</strong> so as to make it appear as if there is a <strong>low</strong> success rate without lying.,all|many|wrong,5,In this exam,of the students got,of the questions,.,Sun Oct 20 2019 17:13:30 GMT+0100 (British Summer Time),1571588010684,1|1|1|0|1|1|0|0|0|0|0|1|0|1|1|0|1|1|0|1|1|0|0|0|0|1|1|1|1|1|1|0|0|1|1|1|0|1|1|1|1|0|0|0|0|0|0|1|0|0|0|1|1|0|1|0|1|0|0|1,15.57855,training_trials,2
88,,27419,51,0.9,all|most|many|some|few|none,all|most|many|some|few|none,right|wrong,12,,high,NA,Graduated High School,1571588945397,NA,4,male,English,5ca9f8926025570001c872f3,Describe these results of <strong>Green Valley</strong> so as to make it appear as if there is a <strong>high</strong> success rate without lying.,all|most|right,5,In this exam,of the students got,of the questions,.,Sun Oct 20 2019 17:13:30 GMT+0100 (British Summer Time),1571588010684,0|0|0|0|0|0|0|0|0|0|1|0|0|0|0|0|0|0|0|0|0|0|0|0|0|0|0|0|0|0|0|0|0|0|1|1|0|0|0|0|0|0|0|0|0|0|1|0|0|1|0|0|0|1|0|0|0|0|0|0,15.57855,training_trials,3
88,,61524,51,0.5,all|most|many|some|few|none,all|most|many|some|few|none,right|wrong,12,,high,placeholder,Graduated High School,1571588945397,placeholder,4,male,English,5ca9f8926025570001c872f3,Describe these results of <strong>Green Valley</strong> so as to make it appear as if there is a <strong>high</strong> success rate without lying.,many|most|right,5,In this exam,of the students got,of the questions,.,Sun Oct 20 2019 17:13:30 GMT+0100 (British Summer Time),1571588010684,0|1|0|0|0|0|1|0|1|0|1|1|1|1|0|0|0|1|0|1|0|1|0|1|1|1|0|0|0|0|1|0|0|1|1|0|1|1|1|1|1|1|0|1|0|1|1|0|1|1|1|1|1|0|0|0|0|0|1|0,15.57855,main_trials,1
88,,31646,51,0.3,all|most|many|some|few|none,all|most|many|some|few|none,right|wrong,12,,low,placeholder,Graduated High School,1571588945397,placeholder,4,male,English,5ca9f8926025570001c872f3,Describe these results of <strong>Riverside</strong> so as to make it appear as if there is a <strong>low</strong> success rate without lying.,most|most|wrong,5,In this exam,of the students got,of the questions,.,Sun Oct 20 2019 17:13:30 GMT+0100 (British Summer Time),1571588010684,1|1|1|0|1|0|0|1|1|1|1|1|1|1|1|0|1|1|1|1|1|1|1|1|1|1|1|0|0|1|1|1|1|1|1|0|1|1|1|1|1|0|1|0|0|0|1|1|1|1|1|1|1|0|1|0|1|1|1|1,15.57855,main_trials,2
88,,52027,51,0.6,all|most|many|some|few|none,all|most|many|some|few|none,right|wrong,12,,high,placeholder,Graduated High School,1571588945397,placeholder,4,male,English,5ca9f8926025570001c872f3,Describe these results of <strong>Green Valley</strong> so as to make it appear as if there is a <strong>high</strong> success rate without lying.,most|most|right,5,In this exam,of the students got,of the questions,.,Sun Oct 20 2019 17:13:30 GMT+0100 (British Summer Time),1571588010684,0|1|1|0|0|0|0|1|0|0|1|1|0|0|0|1|1|1|1|0|0|1|1|1|0|0|0|0|1|1|0|1|1|0|0|1|0|0|1|0|0|0|1|0|0|0|1|1|1|0|1|0|1|0|1|0|0|1|0|0,15.57855,main_trials,3
88,,60643,51,0.8,all|most|many|some|few|none,all|most|many|some|few|none,right|wrong,12,,high,placeholder,Graduated High School,1571588945397,placeholder,4,male,English,5ca9f8926025570001c872f3,Describe these results of <strong>Green Valley</strong> so as to make it appear as if there is a <strong>high</strong> success rate without lying.,most|most|right,5,In this exam,of the students got,of the questions,.,Sun Oct 20 2019 17:13:30 GMT+0100 (British Summer Time),1571588010684,0|0|0|0|1|1|0|0|0|0|0|0|0|0|1|0|0|1|0|0|0|1|0|1|0|0|0|0|1|0|0|1|0|0|0|1|1|0|0|1|0|0|0|1|0|0|0|1|0|0|0|0|1|0|0|0|1|0|0|0,15.57855,main_trials,4
88,,50763,51,0.8,all|most|many|some|few|none,all|most|many|some|few|none,right|wrong,12,,low,placeholder,Graduated High School,1571588945397,placeholder,4,male,English,5ca9f8926025570001c872f3,Describe these results of <strong>Riverside</strong> so as to make it appear as if there is a <strong>low</strong> success rate without lying.,most|some|wrong,5,In this exam,of the students got,of the questions,.,Sun Oct 20 2019 17:13:30 GMT+0100 (British Summer Time),1571588010684,0|0|0|0|0|1|1|0|0|0|0|0|1|0|0|0|0|0|0|1|0|0|0|1|0|1|0|0|0|0|0|0|1|0|0|0|0|0|0|0|0|0|0|0|0|0|0|0|0|0|1|0|0|0|1|0|0|1|0|0,15.57855,main_trials,5
88,,47346,51,0.2,all|most|many|some|few|none,all|most|many|some|few|none,right|wrong,12,,low,placeholder,Graduated High School,1571588945397,placeholder,4,male,English,5ca9f8926025570001c872f3,Describe these results of <strong>Riverside</strong> so as to make it appear as if there is a <strong>low</strong> success rate without lying.,most|most|wrong,5,In this exam,of the students got,of the questions,.,Sun Oct 20 2019 17:13:30 GMT+0100 (British Summer Time),1571588010684,0|0|1|0|0|0|1|0|1|0|1|1|1|1|1|0|0|0|1|1|1|1|0|1|1|1|1|1|1|0|1|0|1|1|0|0|1|0|0|1|1|0|1|1|1|1|1|1|1|1|1|1|1|1|1|1|1|1|1|1,15.57855,main_trials,6
88,,29295,51,0.5,all|most|many|some|few|none,all|most|many|some|few|none,right|wrong,12,,low,placeholder,Graduated High School,1571588945397,placeholder,4,male,English,5ca9f8926025570001c872f3,Describe these results of <strong>Riverside</strong> so as to make it appear as if there is a <strong>low</strong> success rate without lying.,all|many|wrong,5,In this exam,of the students got,of the questions,.,Sun Oct 20 2019 17:13:30 GMT+0100 (British Summer Time),1571588010684,1|0|0|0|0|0|0|1|1|1|1|0|0|0|0|0|0|0|1|1|0|0|1|1|0|1|1|0|0|0|1|1|1|1|0|0|1|0|1|0|1|0|0|1|0|1|0|0|1|1|1|1|1|0|0|0|0|1|0|0,15.57855,main_trials,7
88,,50107,51,0.3,all|most|many|some|few|none,all|most|many|some|few|none,right|wrong,12,,high,placeholder,Graduated High School,1571588945397,placeholder,4,male,English,5ca9f8926025570001c872f3,Describe these results of <strong>Green Valley</strong> so as to make it appear as if there is a <strong>high</strong> success rate without lying.,many|many|right,5,In this exam,of the students got,of the questions,.,Sun Oct 20 2019 17:13:30 GMT+0100 (British Summer Time),1571588010684,0|1|1|0|0|1|1|0|1|1|0|1|1|0|1|0|0|1|1|1|1|0|1|1|1|0|1|1|1|1|1|1|1|0|1|1|1|1|1|1|0|0|1|0|1|0|1|1|1|1|1|1|1|1|1|1|1|1|0|1,15.57855,main_trials,8
88,,33414,51,0.4,all|most|many|some|few|none,all|most|many|some|few|none,right|wrong,12,,high,placeholder,Graduated High School,1571588945397,placeholder,4,male,English,5ca9f8926025570001c872f3,Describe these results of <strong>Green Valley</strong> so as to make it appear as if there is a <strong>high</strong> success rate without lying.,many|most|right,5,In this exam,of the students got,of the questions,.,Sun Oct 20 2019 17:13:30 GMT+0100 (British Summer Time),1571588010684,0|0|1|1|0|0|0|1|1|0|1|1|0|1|1|1|1|0|1|0|1|0|1|0|0|1|0|1|0|0|1|0|1|0|0|0|1|0|1|0|1|1|0|0|0|0|0|1|1|0|1|1|1|1|0|0|1|1|0|0,15.57855,main_trials,9
88,,23640,51,0.7,all|most|many|some|few|none,all|most|many|some|few|none,right|wrong,12,,high,placeholder,Graduated High School,1571588945397,placeholder,4,male,English,5ca9f8926025570001c872f3,Describe these results of <strong>Green Valley</strong> so as to make it appear as if there is a <strong>high</strong> success rate without lying.,most|most|right,5,In this exam,of the students got,of the questions,.,Sun Oct 20 2019 17:13:30 GMT+0100 (British Summer Time),1571588010684,0|1|0|0|0|0|1|0|0|1|0|0|1|1|0|0|1|0|0|1|0|0|0|0|1|1|1|0|0|1|0|1|0|1|0|1|1|0|0|0|0|0|0|1|0|1|0|1|0|0|0|0|1|0|1|0|1|0|0|1,15.57855,main_trials,10
88,,21767,51,0.6,all|most|many|some|few|none,all|most|many|some|few|none,right|wrong,12,,low,placeholder,Graduated High School,1571588945397,placeholder,4,male,English,5ca9f8926025570001c872f3,Describe these results of <strong>Riverside</strong> so as to make it appear as if there is a <strong>low</strong> success rate without lying.,all|many|wrong,5,In this exam,of the students got,of the questions,.,Sun Oct 20 2019 17:13:30 GMT+0100 (British Summer Time),1571588010684,0|0|1|0|0|1|0|0|0|0|1|1|0|0|1|1|1|0|0|0|1|1|0|1|1|1|1|1|0|1|0|0|0|0|0|0|0|0|0|1|0|0|1|1|1|0|1|0|0|0|0|0|0|0|0|1|0|1|1|0,15.57855,main_trials,11
88,,46079,51,0.4,all|most|many|some|few|none,all|most|many|some|few|none,right|wrong,12,,low,placeholder,Graduated High School,1571588945397,placeholder,4,male,English,5ca9f8926025570001c872f3,Describe these results of <strong>Riverside</strong> so as to make it appear as if there is a <strong>low</strong> success rate without lying.,most|many|wrong,5,In this exam,of the students got,of the questions,.,Sun Oct 20 2019 17:13:30 GMT+0100 (British Summer Time),1571588010684,1|1|0|0|1|0|1|0|0|0|0|1|1|1|1|1|0|0|1|0|1|0|1|0|0|0|0|0|1|0|1|1|1|0|0|0|1|0|1|0|1|1|1|1|1|1|0|1|0|1|0|0|1|0|1|1|1|1|0|1,15.57855,main_trials,12
88,,49778,51,0.2,all|most|many|some|few|none,all|most|many|some|few|none,right|wrong,12,,high,placeholder,Graduated High School,1571588945397,placeholder,4,male,English,5ca9f8926025570001c872f3,Describe these results of <strong>Green Valley</strong> so as to make it appear as if there is a <strong>high</strong> success rate without lying.,all|some|right,5,In this exam,of the students got,of the questions,.,Sun Oct 20 2019 17:13:30 GMT+0100 (British Summer Time),1571588010684,1|1|0|1|1|1|1|1|1|1|1|1|1|1|1|0|0|1|1|1|1|1|1|1|1|1|1|1|1|1|1|1|1|1|0|1|0|0|1|1|0|1|1|1|0|0|1|0|1|1|1|1|1|1|1|1|1|1|0|1,15.57855,main_trials,13
88,,29897,51,0.7,all|most|many|some|few|none,all|most|many|some|few|none,right|wrong,12,,low,placeholder,Graduated High School,1571588945397,placeholder,4,male,English,5ca9f8926025570001c872f3,Describe these results of <strong>Riverside</strong> so as to make it appear as if there is a <strong>low</strong> success rate without lying.,all|many|wrong,5,In this exam,of the students got,of the questions,.,Sun Oct 20 2019 17:13:30 GMT+0100 (British Summer Time),1571588010684,0|1|1|0|1|1|1|0|1|0|1|0|1|0|0|0|1|0|0|1|1|0|0|1|0|0|1|0|0|1|0|0|1|1|0|1|1|0|0|0|1|0|1|1|1|1|1|0|0|0|1|0|0|0|0|0|1|1|0|1,15.57855,main_trials,14
87,,161306,31,0.2,all|most|many|some|few|none,all|most|many|some|few|none,right|wrong,12,Fun,high,NA,Graduated High School,1571588915028,NA,4,male,english,5aa9153235237b00011322e9,Describe these results of <strong>Green Valley</strong> so as to make it appear as if there is a <strong>high</strong> success rate without lying.,few|some|right,5,In this exam,of the students got,of the questions,.,Sun Oct 20 2019 11:13:44 GMT-0500 (Central Daylight Time),1571588024413,1|1|1|1|0|1|1|1|0|1|0|1|1|1|1|1|1|1|1|0|0|0|1|1|1|1|1|0|1|1|1|1|1|1|1|0|1|1|1|1|1|1|1|1|1|0|1|1|1|1|1|0|1|1|1|1|1|1|1|0,14.843583333333333,training_trials,1
87,,20838,31,0.9,all|most|many|some|few|none,all|most|many|some|few|none,right|wrong,12,Fun,high,NA,Graduated High School,1571588915028,NA,4,male,english,5aa9153235237b00011322e9,Describe these results of <strong>Green Valley</strong> so as to make it appear as if there is a <strong>high</strong> success rate without lying.,most|most|right,5,In this exam,of the students got,of the questions,.,Sun Oct 20 2019 11:13:44 GMT-0500 (Central Daylight Time),1571588024413,0|0|0|0|0|0|0|0|0|0|0|1|0|0|0|0|1|0|0|0|0|0|0|0|1|1|1|0|0|0|0|0|0|0|1|0|1|0|0|0|0|0|0|0|0|0|0|0|0|0|0|0|0|0|0|0|0|0|0|0,14.843583333333333,training_trials,2
87,,20853,31,0.5,all|most|many|some|few|none,all|most|many|some|few|none,right|wrong,12,Fun,low,NA,Graduated High School,1571588915028,NA,4,male,english,5aa9153235237b00011322e9,Describe these results of <strong>Riverside</strong> so as to make it appear as if there is a <strong>low</strong> success rate without lying.,some|many|wrong,5,In this exam,of the students got,of the questions,.,Sun Oct 20 2019 11:13:44 GMT-0500 (Central Daylight Time),1571588024413,0|0|0|0|0|0|1|0|0|1|1|1|1|1|1|1|1|1|0|0|1|0|1|0|0|0|0|1|0|1|0|1|0|0|1|1|0|1|1|0|1|0|1|0|1|0|1|0|1|1|1|1|1|0|0|1|0|1|1|1,14.843583333333333,training_trials,3
87,,22109,31,0.8,all|most|many|some|few|none,all|most|many|some|few|none,right|wrong,12,Fun,high,placeholder,Graduated High School,1571588915028,placeholder,4,male,english,5aa9153235237b00011322e9,Describe these results of <strong>Green Valley</strong> so as to make it appear as if there is a <strong>high</strong> success rate without lying.,most|most|right,5,In this exam,of the students got,of the questions,.,Sun Oct 20 2019 11:13:44 GMT-0500 (Central Daylight Time),1571588024413,1|0|0|0|1|0|0|0|0|1|0|0|0|0|0|0|0|0|0|0|0|1|0|0|0|1|0|0|1|0|0|0|0|0|0|0|0|1|1|0|0|0|0|1|0|0|0|1|1|0|0|0|0|0|1|1|0|1|0|1,14.843583333333333,main_trials,1
87,,27552,31,0.4,all|most|many|some|few|none,all|most|many|some|few|none,right|wrong,12,Fun,low,placeholder,Graduated High School,1571588915028,placeholder,4,male,english,5aa9153235237b00011322e9,Describe these results of <strong>Riverside</strong> so as to make it appear as if there is a <strong>low</strong> success rate without lying.,many|many|wrong,5,In this exam,of the students got,of the questions,.,Sun Oct 20 2019 11:13:44 GMT-0500 (Central Daylight Time),1571588024413,0|0|1|1|0|1|1|1|1|0|0|0|0|0|1|0|1|1|0|0|1|0|1|1|0|1|1|0|1|1|1|0|1|1|1|1|0|1|1|0|1|0|0|0|1|0|1|1|1|0|1|1|1|0|1|1|1|0|1|1,14.843583333333333,main_trials,2
87,,17097,31,0.7,all|most|many|some|few|none,all|most|many|some|few|none,right|wrong,12,Fun,high,placeholder,Graduated High School,1571588915028,placeholder,4,male,english,5aa9153235237b00011322e9,Describe these results of <strong>Green Valley</strong> so as to make it appear as if there is a <strong>high</strong> success rate without lying.,most|many|right,5,In this exam,of the students got,of the questions,.,Sun Oct 20 2019 11:13:44 GMT-0500 (Central Daylight Time),1571588024413,0|0|1|0|1|0|0|1|0|0|1|1|0|0|0|0|0|0|0|0|0|1|0|1|0|1|0|1|0|0|0|0|0|0|1|0|0|0|0|0|0|0|0|1|0|0|1|0|0|0|1|1|1|0|1|0|0|1|1|0,14.843583333333333,main_trials,3
87,,19507,31,0.5,all|most|many|some|few|none,all|most|many|some|few|none,right|wrong,12,Fun,high,placeholder,Graduated High School,1571588915028,placeholder,4,male,english,5aa9153235237b00011322e9,Describe these results of <strong>Green Valley</strong> so as to make it appear as if there is a <strong>high</strong> success rate without lying.,many|many|right,5,In this exam,of the students got,of the questions,.,Sun Oct 20 2019 11:13:44 GMT-0500 (Central Daylight Time),1571588024413,0|0|0|0|1|0|1|0|1|1|1|0|0|1|1|0|0|1|1|0|1|0|1|0|1|1|1|0|1|0|0|0|0|1|1|1|1|0|0|0|0|0|1|0|0|1|0|1|1|1|1|1|1|0|1|0|1|1|1|0,14.843583333333333,main_trials,4
87,,27499,31,0.2,all|most|many|some|few|none,all|most|many|some|few|none,right|wrong,12,Fun,high,placeholder,Graduated High School,1571588915028,placeholder,4,male,english,5aa9153235237b00011322e9,Describe these results of <strong>Green Valley</strong> so as to make it appear as if there is a <strong>high</strong> success rate without lying.,few|few|right,5,In this exam,of the students got,of the questions,.,Sun Oct 20 2019 11:13:44 GMT-0500 (Central Daylight Time),1571588024413,1|1|1|1|1|1|1|1|1|1|0|1|1|1|1|1|1|1|1|1|1|1|1|1|1|1|1|1|1|1|1|1|1|1|0|1|1|1|1|1|0|1|0|1|1|1|0|1|1|1|1|1|1|0|1|1|1|1|1|1,14.843583333333333,main_trials,5
87,,47019,31,0.8,all|most|many|some|few|none,all|most|many|some|few|none,right|wrong,12,Fun,low,placeholder,Graduated High School,1571588915028,placeholder,4,male,english,5aa9153235237b00011322e9,Describe these results of <strong>Riverside</strong> so as to make it appear as if there is a <strong>low</strong> success rate without lying.,few|few|wrong,5,In this exam,of the students got,of the questions,.,Sun Oct 20 2019 11:13:44 GMT-0500 (Central Daylight Time),1571588024413,0|0|0|0|0|0|0|0|0|0|0|0|0|0|0|0|0|1|1|0|0|0|0|1|0|1|0|0|1|1|1|0|0|0|1|0|0|0|0|0|1|0|0|0|1|0|0|0|0|0|0|1|0|0|0|0|0|0|0|0,14.843583333333333,main_trials,6
87,,14545,31,0.3,all|most|many|some|few|none,all|most|many|some|few|none,right|wrong,12,Fun,high,placeholder,Graduated High School,1571588915028,placeholder,4,male,english,5aa9153235237b00011322e9,Describe these results of <strong>Green Valley</strong> so as to make it appear as if there is a <strong>high</strong> success rate without lying.,some|some|right,5,In this exam,of the students got,of the questions,.,Sun Oct 20 2019 11:13:44 GMT-0500 (Central Daylight Time),1571588024413,1|1|1|1|1|1|1|1|1|1|1|1|0|0|1|0|1|1|1|1|0|1|0|1|1|1|1|1|1|1|0|1|0|0|1|0|1|1|1|0|1|1|0|0|0|1|1|1|1|1|0|1|1|1|1|1|0|1|0|1,14.843583333333333,main_trials,7
87,,33536,31,0.7,all|most|many|some|few|none,all|most|many|some|few|none,right|wrong,12,Fun,low,placeholder,Graduated High School,1571588915028,placeholder,4,male,english,5aa9153235237b00011322e9,Describe these results of <strong>Riverside</strong> so as to make it appear as if there is a <strong>low</strong> success rate without lying.,some|some|wrong,5,In this exam,of the students got,of the questions,.,Sun Oct 20 2019 11:13:44 GMT-0500 (Central Daylight Time),1571588024413,1|0|1|0|0|0|0|0|0|0|0|0|0|0|0|0|0|0|0|0|1|0|0|0|1|0|0|1|0|0|0|0|1|0|0|0|0|0|0|0|1|0|1|1|1|0|0|1|0|1|0|0|1|1|0|0|1|0|1|0,14.843583333333333,main_trials,8
87,,18438,31,0.3,all|most|many|some|few|none,all|most|many|some|few|none,right|wrong,12,Fun,low,placeholder,Graduated High School,1571588915028,placeholder,4,male,english,5aa9153235237b00011322e9,Describe these results of <strong>Riverside</strong> so as to make it appear as if there is a <strong>low</strong> success rate without lying.,most|many|wrong,5,In this exam,of the students got,of the questions,.,Sun Oct 20 2019 11:13:44 GMT-0500 (Central Daylight Time),1571588024413,1|1|1|0|0|0|0|1|0|1|0|0|1|0|1|1|1|0|1|1|1|1|1|1|1|1|1|1|0|0|0|1|1|1|1|1|1|1|0|1|1|1|1|1|0|0|1|0|1|0|1|1|0|1|1|1|1|1|0|1,14.843583333333333,main_trials,9
87,,27805,31,0.4,all|most|many|some|few|none,all|most|many|some|few|none,right|wrong,12,Fun,high,placeholder,Graduated High School,1571588915028,placeholder,4,male,english,5aa9153235237b00011322e9,Describe these results of <strong>Green Valley</strong> so as to make it appear as if there is a <strong>high</strong> success rate without lying.,few|some|right,5,In this exam,of the students got,of the questions,.,Sun Oct 20 2019 11:13:44 GMT-0500 (Central Daylight Time),1571588024413,0|1|0|0|1|0|0|1|1|1|1|0|0|1|1|1|1|1|1|1|0|1|1|1|1|1|0|0|1|1|1|1|1|1|0|1|0|1|0|1|0|0|1|1|1|1|0|0|0|0|1|1|1|0|1|0|1|0|1|0,14.843583333333333,main_trials,10
87,,21914,31,0.5,all|most|many|some|few|none,all|most|many|some|few|none,right|wrong,12,Fun,low,placeholder,Graduated High School,1571588915028,placeholder,4,male,english,5aa9153235237b00011322e9,Describe these results of <strong>Riverside</strong> so as to make it appear as if there is a <strong>low</strong> success rate without lying.,many|some|wrong,5,In this exam,of the students got,of the questions,.,Sun Oct 20 2019 11:13:44 GMT-0500 (Central Daylight Time),1571588024413,0|1|1|0|0|1|1|1|1|1|1|1|1|1|1|0|0|0|0|0|0|0|0|0|0|0|1|1|1|0|1|0|1|0|0|1|0|1|0|0|1|0|1|1|1|0|0|1|1|0|0|0|0|1|1|0|1|1|1|0,14.843583333333333,main_trials,11
87,,30019,31,0.6,all|most|many|some|few|none,all|most|many|some|few|none,right|wrong,12,Fun,high,placeholder,Graduated High School,1571588915028,placeholder,4,male,english,5aa9153235237b00011322e9,Describe these results of <strong>Green Valley</strong> so as to make it appear as if there is a <strong>high</strong> success rate without lying.,many|many|right,5,In this exam,of the students got,of the questions,.,Sun Oct 20 2019 11:13:44 GMT-0500 (Central Daylight Time),1571588024413,0|0|0|0|0|0|1|0|0|1|0|1|0|1|0|0|1|1|0|0|0|1|0|1|1|0|1|1|1|0|0|0|0|0|0|1|0|0|1|1|0|1|0|0|0|1|1|1|1|0|1|0|0|1|0|0|1|1|0|0,14.843583333333333,main_trials,12
87,,34046,31,0.6,all|most|many|some|few|none,all|most|many|some|few|none,right|wrong,12,Fun,low,placeholder,Graduated High School,1571588915028,placeholder,4,male,english,5aa9153235237b00011322e9,Describe these results of <strong>Riverside</strong> so as to make it appear as if there is a <strong>low</strong> success rate without lying.,some|some|wrong,5,In this exam,of the students got,of the questions,.,Sun Oct 20 2019 11:13:44 GMT-0500 (Central Daylight Time),1571588024413,0|0|0|0|0|1|1|1|0|1|0|0|0|1|0|0|1|1|1|1|0|1|1|1|1|0|0|0|0|0|1|1|1|1|1|0|0|1|0|0|1|0|0|1|0|0|1|1|1|0|0|1|0|0|1|1|0|0|0|0,14.843583333333333,main_trials,13
87,,17701,31,0.2,all|most|many|some|few|none,all|most|many|some|few|none,right|wrong,12,Fun,low,placeholder,Graduated High School,1571588915028,placeholder,4,male,english,5aa9153235237b00011322e9,Describe these results of <strong>Riverside</strong> so as to make it appear as if there is a <strong>low</strong> success rate without lying.,most|most|wrong,5,In this exam,of the students got,of the questions,.,Sun Oct 20 2019 11:13:44 GMT-0500 (Central Daylight Time),1571588024413,1|1|1|1|1|1|1|1|1|1|0|1|1|1|1|0|1|0|1|0|0|1|1|0|1|0|0|1|0|1|1|1|0|1|1|1|1|0|1|1|1|1|1|1|1|1|1|1|1|0|0|1|0|1|0|1|1|1|0|0,14.843583333333333,main_trials,14
86,,166565,64,0.5,all|most|many|some|few|none,all|most|many|some|few|none,right|wrong,12,,low,NA,Higher Degree,1571588891360,NA,4,female,english,5b616c251957b60001e286fc,Describe these results of <strong>Riverside</strong> so as to make it appear as if there is a <strong>low</strong> success rate without lying.,many|some|wrong,5,In this exam,of the students got,of the questions,.,Sun Oct 20 2019 17:13:17 GMT+0100 (British Summer Time),1571587997282,1|0|0|0|0|1|0|0|0|0|0|1|1|1|1|0|0|1|1|0|0|1|1|0|0|1|1|1|1|0|1|0|0|1|0|1|1|1|1|0|0|0|0|0|1|0|1|0|0|0|0|0|0|0|0|0|1|1|0|0,14.9013,training_trials,1
86,,59890,64,0.2,all|most|many|some|few|none,all|most|many|some|few|none,right|wrong,12,,high,NA,Higher Degree,1571588891360,NA,4,female,english,5b616c251957b60001e286fc,Describe these results of <strong>Green Valley</strong> so as to make it appear as if there is a <strong>high</strong> success rate without lying.,most|some|right,5,In this exam,of the students got,of the questions,.,Sun Oct 20 2019 17:13:17 GMT+0100 (British Summer Time),1571587997282,0|0|0|1|0|0|1|0|0|0|1|1|1|1|1|0|1|1|1|1|0|0|1|1|1|0|1|1|1|1|1|1|1|0|1|1|1|1|1|1|1|1|0|0|0|1|0|1|1|1|1|0|1|1|1|1|0|0|1|1,14.9013,training_trials,2
86,,25735,64,0.9,all|most|many|some|few|none,all|most|many|some|few|none,right|wrong,12,,high,NA,Higher Degree,1571588891360,NA,4,female,english,5b616c251957b60001e286fc,Describe these results of <strong>Green Valley</strong> so as to make it appear as if there is a <strong>high</strong> success rate without lying.,all|most|right,5,In this exam,of the students got,of the questions,.,Sun Oct 20 2019 17:13:17 GMT+0100 (British Summer Time),1571587997282,0|0|1|0|0|0|0|0|0|0|0|0|0|0|0|0|0|0|0|0|0|0|0|0|0|0|0|0|1|0|0|0|0|0|0|0|0|0|0|0|0|0|0|0|0|0|0|0|0|0|0|0|0|0|0|1|0|0|0|0,14.9013,training_trials,3
86,,39290,64,0.8,all|most|many|some|few|none,all|most|many|some|few|none,right|wrong,12,,low,placeholder,Higher Degree,1571588891360,placeholder,4,female,english,5b616c251957b60001e286fc,Describe these results of <strong>Riverside</strong> so as to make it appear as if there is a <strong>low</strong> success rate without lying.,all|some|wrong,5,In this exam,of the students got,of the questions,.,Sun Oct 20 2019 17:13:17 GMT+0100 (British Summer Time),1571587997282,0|0|0|0|1|1|0|0|0|0|0|0|0|1|0|0|0|0|0|0|1|0|0|0|0|0|1|0|1|0|1|0|0|1|0|0|0|0|0|0|0|0|0|0|0|0|0|1|1|1|0|0|0|0|1|0|1|1|0|1,14.9013,main_trials,1
86,,26680,64,0.2,all|most|many|some|few|none,all|most|many|some|few|none,right|wrong,12,,low,placeholder,Higher Degree,1571588891360,placeholder,4,female,english,5b616c251957b60001e286fc,Describe these results of <strong>Riverside</strong> so as to make it appear as if there is a <strong>low</strong> success rate without lying.,all|most|wrong,5,In this exam,of the students got,of the questions,.,Sun Oct 20 2019 17:13:17 GMT+0100 (British Summer Time),1571587997282,1|1|0|1|1|1|0|1|1|1|1|0|1|1|0|1|1|1|1|1|1|0|1|1|1|1|1|1|0|0|1|1|1|1|1|1|1|1|0|1|1|0|1|1|1|1|1|1|1|1|1|1|1|1|1|1|1|1|1|0,14.9013,main_trials,2
86,,20028,64,0.7,all|most|many|some|few|none,all|most|many|some|few|none,right|wrong,12,,high,placeholder,Higher Degree,1571588891360,placeholder,4,female,english,5b616c251957b60001e286fc,Describe these results of <strong>Green Valley</strong> so as to make it appear as if there is a <strong>high</strong> success rate without lying.,all|most|right,5,In this exam,of the students got,of the questions,.,Sun Oct 20 2019 17:13:17 GMT+0100 (British Summer Time),1571587997282,0|1|0|0|1|0|0|0|1|1|0|0|0|0|0|0|0|0|0|1|1|1|0|0|1|0|0|0|0|0|0|0|1|0|0|1|0|0|1|0|0|0|0|1|0|1|1|0|1|0|0|0|0|0|1|0|0|1|0|0,14.9013,main_trials,3
86,,69257,64,0.5,all|most|many|some|few|none,all|most|many|some|few|none,right|wrong,12,,high,placeholder,Higher Degree,1571588891360,placeholder,4,female,english,5b616c251957b60001e286fc,Describe these results of <strong>Green Valley</strong> so as to make it appear as if there is a <strong>high</strong> success rate without lying.,all|some|right,5,In this exam,of the students got,of the questions,.,Sun Oct 20 2019 17:13:17 GMT+0100 (British Summer Time),1571587997282,1|1|0|1|1|1|1|1|0|0|1|0|1|1|0|0|0|0|0|1|1|0|0|0|1|1|0|0|1|1|0|1|1|0|1|0|0|0|1|0|0|0|1|1|0|0|1|1|1|1|1|0|1|0|1|1|1|0|1|0,14.9013,main_trials,4
86,,21323,64,0.3,all|most|many|some|few|none,all|most|many|some|few|none,right|wrong,12,,low,placeholder,Higher Degree,1571588891360,placeholder,4,female,english,5b616c251957b60001e286fc,Describe these results of <strong>Riverside</strong> so as to make it appear as if there is a <strong>low</strong> success rate without lying.,all|most|wrong,5,In this exam,of the students got,of the questions,.,Sun Oct 20 2019 17:13:17 GMT+0100 (British Summer Time),1571587997282,1|0|0|1|0|1|1|1|1|1|1|1|0|0|0|1|1|0|0|1|1|1|1|1|1|0|1|0|1|0|1|1|0|1|1|1|0|1|1|1|1|1|1|1|1|1|1|0|1|0|1|1|0|1|1|1|1|1|0|0,14.9013,main_trials,5
86,,20933,64,0.3,all|most|many|some|few|none,all|most|many|some|few|none,right|wrong,12,,high,placeholder,Higher Degree,1571588891360,placeholder,4,female,english,5b616c251957b60001e286fc,Describe these results of <strong>Green Valley</strong> so as to make it appear as if there is a <strong>high</strong> success rate without lying.,all|some|right,5,In this exam,of the students got,of the questions,.,Sun Oct 20 2019 17:13:17 GMT+0100 (British Summer Time),1571587997282,0|1|0|0|1|0|1|1|1|1|1|1|0|0|0|1|0|1|0|1|1|1|1|1|0|1|1|0|0|1|1|1|0|1|1|1|1|1|0|1|0|0|0|1|1|0|1|1|0|0|1|1|1|0|1|1|0|1|1|1,14.9013,main_trials,6
86,,25597,64,0.6,all|most|many|some|few|none,all|most|many|some|few|none,right|wrong,12,,low,placeholder,Higher Degree,1571588891360,placeholder,4,female,english,5b616c251957b60001e286fc,Describe these results of <strong>Riverside</strong> so as to make it appear as if there is a <strong>low</strong> success rate without lying.,all|some|wrong,5,In this exam,of the students got,of the questions,.,Sun Oct 20 2019 17:13:17 GMT+0100 (British Summer Time),1571587997282,0|1|0|0|1|1|1|0|0|0|0|1|1|0|0|0|1|0|0|0|1|1|0|0|1|1|0|1|0|1|0|1|0|1|0|1|1|0|0|1|0|0|1|0|1|1|0|0|1|0|1|0|0|0|0|0|1|1|0|0,14.9013,main_trials,7
86,,64464,64,0.2,all|most|many|some|few|none,all|most|many|some|few|none,right|wrong,12,,high,placeholder,Higher Degree,1571588891360,placeholder,4,female,english,5b616c251957b60001e286fc,Describe these results of <strong>Green Valley</strong> so as to make it appear as if there is a <strong>high</strong> success rate without lying.,none|all|wrong,5,In this exam,of the students got,of the questions,.,Sun Oct 20 2019 17:13:17 GMT+0100 (British Summer Time),1571587997282,1|1|1|1|1|1|0|1|1|1|1|1|0|1|1|0|0|1|1|1|1|1|1|1|1|0|0|1|1|0|1|1|1|0|0|1|1|1|1|0|1|0|1|1|1|1|1|1|1|1|1|0|0|1|1|1|1|1|0|1,14.9013,main_trials,8
86,,25545,64,0.6,all|most|many|some|few|none,all|most|many|some|few|none,right|wrong,12,,high,placeholder,Higher Degree,1571588891360,placeholder,4,female,english,5b616c251957b60001e286fc,Describe these results of <strong>Green Valley</strong> so as to make it appear as if there is a <strong>high</strong> success rate without lying.,all|many|right,5,In this exam,of the students got,of the questions,.,Sun Oct 20 2019 17:13:17 GMT+0100 (British Summer Time),1571587997282,0|1|0|1|0|1|0|1|0|0|0|1|0|0|1|1|1|1|0|0|0|0|1|0|0|0|0|0|1|0|0|0|0|1|0|0|0|1|1|1|0|0|1|1|1|0|0|0|1|0|1|0|0|1|1|0|0|0|0|1,14.9013,main_trials,9
86,,24881,64,0.5,all|most|many|some|few|none,all|most|many|some|few|none,right|wrong,12,,low,placeholder,Higher Degree,1571588891360,placeholder,4,female,english,5b616c251957b60001e286fc,Describe these results of <strong>Riverside</strong> so as to make it appear as if there is a <strong>low</strong> success rate without lying.,none|all|right,5,In this exam,of the students got,of the questions,.,Sun Oct 20 2019 17:13:17 GMT+0100 (British Summer Time),1571587997282,0|0|1|1|0|0|1|1|0|0|0|0|1|1|1|0|1|1|0|0|1|0|1|0|0|0|0|1|1|1|1|1|0|1|1|1|1|0|0|0|0|0|1|1|1|0|0|0|1|1|0|1|0|1|0|0|1|0|0|0,14.9013,main_trials,10
86,,15215,64,0.8,all|most|many|some|few|none,all|most|many|some|few|none,right|wrong,12,,high,placeholder,Higher Degree,1571588891360,placeholder,4,female,english,5b616c251957b60001e286fc,Describe these results of <strong>Green Valley</strong> so as to make it appear as if there is a <strong>high</strong> success rate without lying.,all|most|right,5,In this exam,of the students got,of the questions,.,Sun Oct 20 2019 17:13:17 GMT+0100 (British Summer Time),1571587997282,0|0|0|0|0|0|0|0|0|0|0|0|0|0|0|0|0|0|0|0|0|0|1|0|0|0|0|1|0|0|0|0|0|0|0|0|0|0|0|0|0|0|1|0|0|0|0|0|0|0|0|0|0|0|0|0|1|0|0|0,14.9013,main_trials,11
86,,19721,64,0.4,all|most|many|some|few|none,all|most|many|some|few|none,right|wrong,12,,low,placeholder,Higher Degree,1571588891360,placeholder,4,female,english,5b616c251957b60001e286fc,Describe these results of <strong>Riverside</strong> so as to make it appear as if there is a <strong>low</strong> success rate without lying.,most|most|wrong,5,In this exam,of the students got,of the questions,.,Sun Oct 20 2019 17:13:17 GMT+0100 (British Summer Time),1571587997282,0|0|1|1|1|1|0|1|1|1|1|1|1|0|1|1|0|1|1|1|1|0|1|0|0|1|0|1|0|1|1|1|1|0|0|1|1|1|0|1|0|0|1|0|1|1|0|1|0|0|0|1|1|1|0|1|0|1|1|1,14.9013,main_trials,12
86,,56995,64,0.4,all|most|many|some|few|none,all|most|many|some|few|none,right|wrong,12,,high,placeholder,Higher Degree,1571588891360,placeholder,4,female,english,5b616c251957b60001e286fc,Describe these results of <strong>Green Valley</strong> so as to make it appear as if there is a <strong>high</strong> success rate without lying.,some|some|right,5,In this exam,of the students got,of the questions,.,Sun Oct 20 2019 17:13:17 GMT+0100 (British Summer Time),1571587997282,0|1|0|1|1|1|1|0|1|1|1|1|0|1|0|0|1|0|1|0|0|0|1|0|1|1|0|1|0|0|1|1|1|0|1|1|0|1|1|1|0|1|0|1|1|0|1|0|1|0|0|1|1|1|1|0|1|1|1|0,14.9013,main_trials,13
86,,48126,64,0.7,all|most|many|some|few|none,all|most|many|some|few|none,right|wrong,12,,low,placeholder,Higher Degree,1571588891360,placeholder,4,female,english,5b616c251957b60001e286fc,Describe these results of <strong>Riverside</strong> so as to make it appear as if there is a <strong>low</strong> success rate without lying.,few|all|right,5,In this exam,of the students got,of the questions,.,Sun Oct 20 2019 17:13:17 GMT+0100 (British Summer Time),1571587997282,1|0|1|0|1|0|0|0|0|1|1|0|0|1|0|0|1|0|0|0|0|1|1|0|0|0|1|1|1|0|0|0|0|0|1|0|0|1|1|0|0|1|0|1|0|0|0|1|0|0|1|0|1|0|0|1|0|1|1|1,14.9013,main_trials,14
85,,88966,55,0.2,all|most|many|some|few|none,all|most|many|some|few|none,right|wrong,12,,high,NA,Graduated High School,1571588724556,NA,4,female,English,59f226a9d6380600018b2923,Describe these results of <strong>Green Valley</strong> so as to make it appear as if there is a <strong>high</strong> success rate without lying.,some|few|right,5,In this exam,of the students got,of the questions,.,Sun Oct 20 2019 09:13:22 GMT-0700 (Pacific Daylight Time),1571588002690,1|0|1|1|0|1|1|1|1|1|0|1|1|1|1|1|1|1|1|1|1|1|0|1|1|1|1|1|1|0|1|1|1|1|1|1|0|1|1|1|1|0|0|1|1|1|1|1|1|1|0|1|1|0|1|1|1|0|1|1,12.0311,training_trials,1
85,,93045,55,0.5,all|most|many|some|few|none,all|most|many|some|few|none,right|wrong,12,,low,NA,Graduated High School,1571588724556,NA,4,female,English,59f226a9d6380600018b2923,Describe these results of <strong>Riverside</strong> so as to make it appear as if there is a <strong>low</strong> success rate without lying.,some|most|right,5,In this exam,of the students got,of the questions,.,Sun Oct 20 2019 09:13:22 GMT-0700 (Pacific Daylight Time),1571588002690,0|0|1|1|0|0|1|1|0|0|0|0|1|0|1|1|0|1|1|1|0|0|1|0|0|0|1|0|1|0|0|0|0|1|0|0|0|1|1|1|0|0|1|0|1|0|0|0|0|0|0|0|0|0|0|0|0|0|0|0,12.0311,training_trials,2
85,,17128,55,0.9,all|most|many|some|few|none,all|most|many|some|few|none,right|wrong,12,,high,NA,Graduated High School,1571588724556,NA,4,female,English,59f226a9d6380600018b2923,Describe these results of <strong>Green Valley</strong> so as to make it appear as if there is a <strong>high</strong> success rate without lying.,all|most|right,5,In this exam,of the students got,of the questions,.,Sun Oct 20 2019 09:13:22 GMT-0700 (Pacific Daylight Time),1571588002690,0|0|1|0|0|0|0|1|0|0|0|0|0|0|0|1|0|0|0|1|0|0|0|1|0|0|0|1|0|0|1|0|0|0|1|0|0|0|0|1|0|0|0|0|0|0|0|0|1|0|0|0|0|0|0|0|0|0|0|0,12.0311,training_trials,3
85,,49820,55,0.6,all|most|many|some|few|none,all|most|many|some|few|none,right|wrong,12,,low,placeholder,Graduated High School,1571588724556,placeholder,4,female,English,59f226a9d6380600018b2923,Describe these results of <strong>Riverside</strong> so as to make it appear as if there is a <strong>low</strong> success rate without lying.,some|few|right,5,In this exam,of the students got,of the questions,.,Sun Oct 20 2019 09:13:22 GMT-0700 (Pacific Daylight Time),1571588002690,1|0|1|0|0|1|1|0|0|1|1|0|1|0|0|0|0|0|1|1|1|1|0|0|0|0|0|1|1|0|1|0|1|1|0|0|1|1|1|0|0|1|1|1|0|0|0|0|0|0|0|0|0|1|0|1|1|1|1|0,12.0311,main_trials,1
85,,21217,55,0.2,all|most|many|some|few|none,all|most|many|some|few|none,right|wrong,12,,low,placeholder,Graduated High School,1571588724556,placeholder,4,female,English,59f226a9d6380600018b2923,Describe these results of <strong>Riverside</strong> so as to make it appear as if there is a <strong>low</strong> success rate without lying.,all|most|wrong,5,In this exam,of the students got,of the questions,.,Sun Oct 20 2019 09:13:22 GMT-0700 (Pacific Daylight Time),1571588002690,1|1|1|1|1|1|1|1|1|1|0|0|1|1|1|0|1|1|1|1|1|1|1|0|1|1|1|1|1|1|1|0|1|1|0|1|1|1|0|1|1|1|1|1|1|0|1|0|1|1|1|1|1|1|1|0|1|1|1|1,12.0311,main_trials,2
85,,22615,55,0.6,all|most|many|some|few|none,all|most|many|some|few|none,right|wrong,12,,high,placeholder,Graduated High School,1571588724556,placeholder,4,female,English,59f226a9d6380600018b2923,Describe these results of <strong>Green Valley</strong> so as to make it appear as if there is a <strong>high</strong> success rate without lying.,most|most|right,5,In this exam,of the students got,of the questions,.,Sun Oct 20 2019 09:13:22 GMT-0700 (Pacific Daylight Time),1571588002690,0|1|0|0|0|0|0|0|0|0|0|1|0|1|0|1|0|1|0|0|1|0|0|0|0|1|1|0|0|1|0|1|1|1|0|0|0|1|0|0|0|1|0|1|0|1|1|0|0|0|0|0|1|0|0|1|1|0|0|0,12.0311,main_trials,3
85,,25046,55,0.8,all|most|many|some|few|none,all|most|many|some|few|none,right|wrong,12,,low,placeholder,Graduated High School,1571588724556,placeholder,4,female,English,59f226a9d6380600018b2923,Describe these results of <strong>Riverside</strong> so as to make it appear as if there is a <strong>low</strong> success rate without lying.,none|all|right,5,In this exam,of the students got,of the questions,.,Sun Oct 20 2019 09:13:22 GMT-0700 (Pacific Daylight Time),1571588002690,1|1|0|0|0|0|1|0|0|1|0|0|0|0|0|0|1|0|0|0|0|0|0|0|0|0|0|0|0|0|0|0|0|1|1|1|0|0|0|0|0|1|0|0|0|0|0|0|0|0|0|0|1|0|0|0|0|1|1|0,12.0311,main_trials,4
85,,30419,55,0.5,all|most|many|some|few|none,all|most|many|some|few|none,right|wrong,12,,low,placeholder,Graduated High School,1571588724556,placeholder,4,female,English,59f226a9d6380600018b2923,Describe these results of <strong>Riverside</strong> so as to make it appear as if there is a <strong>low</strong> success rate without lying.,some|many|wrong,5,In this exam,of the students got,of the questions,.,Sun Oct 20 2019 09:13:22 GMT-0700 (Pacific Daylight Time),1571588002690,1|0|1|1|0|1|0|0|0|1|1|0|0|1|1|1|0|1|0|1|1|0|0|0|1|1|0|0|0|1|1|0|1|0|0|0|1|1|0|0|1|0|0|1|0|0|1|0|1|0|0|0|0|1|0|0|1|0|0|0,12.0311,main_trials,5
85,,22772,55,0.3,all|most|many|some|few|none,all|most|many|some|few|none,right|wrong,12,,low,placeholder,Graduated High School,1571588724556,placeholder,4,female,English,59f226a9d6380600018b2923,Describe these results of <strong>Riverside</strong> so as to make it appear as if there is a <strong>low</strong> success rate without lying.,many|most|wrong,5,In this exam,of the students got,of the questions,.,Sun Oct 20 2019 09:13:22 GMT-0700 (Pacific Daylight Time),1571588002690,0|1|0|1|1|1|0|1|1|1|1|0|0|0|0|0|1|1|0|0|0|0|1|0|1|0|1|1|1|1|0|1|0|1|1|1|0|0|0|1|1|0|0|1|0|0|1|1|1|0|1|1|1|0|0|1|1|1|0|0,12.0311,main_trials,6
85,,29452,55,0.4,all|most|many|some|few|none,all|most|many|some|few|none,right|wrong,12,,high,placeholder,Graduated High School,1571588724556,placeholder,4,female,English,59f226a9d6380600018b2923,Describe these results of <strong>Green Valley</strong> so as to make it appear as if there is a <strong>high</strong> success rate without lying.,none|all|wrong,5,In this exam,of the students got,of the questions,.,Sun Oct 20 2019 09:13:22 GMT-0700 (Pacific Daylight Time),1571588002690,1|1|0|1|1|0|0|1|0|1|1|1|0|1|1|1|1|1|1|0|0|1|0|1|1|0|1|1|0|1|1|1|1|1|0|1|0|0|1|0|0|0|0|1|1|1|1|1|0|0|0|0|0|1|0|1|1|1|1|1,12.0311,main_trials,7
85,,12324,55,0.7,all|most|many|some|few|none,all|most|many|some|few|none,right|wrong,12,,high,placeholder,Graduated High School,1571588724556,placeholder,4,female,English,59f226a9d6380600018b2923,Describe these results of <strong>Green Valley</strong> so as to make it appear as if there is a <strong>high</strong> success rate without lying.,many|most|right,5,In this exam,of the students got,of the questions,.,Sun Oct 20 2019 09:13:22 GMT-0700 (Pacific Daylight Time),1571588002690,1|0|0|0|0|0|1|0|1|0|0|0|0|1|0|0|0|1|0|0|1|0|0|0|0|1|0|0|0|1|0|0|0|0|0|0|0|0|0|0|1|0|0|0|1|1|0|0|0|0|0|0|1|0|0|1|1|1|0|1,12.0311,main_trials,8
85,,54840,55,0.4,all|most|many|some|few|none,all|most|many|some|few|none,right|wrong,12,,low,placeholder,Graduated High School,1571588724556,placeholder,4,female,English,59f226a9d6380600018b2923,Describe these results of <strong>Riverside</strong> so as to make it appear as if there is a <strong>low</strong> success rate without lying.,some|most|wrong,5,In this exam,of the students got,of the questions,.,Sun Oct 20 2019 09:13:22 GMT-0700 (Pacific Daylight Time),1571588002690,0|1|1|1|1|0|1|1|0|1|1|1|0|0|0|1|1|0|0|0|1|1|0|1|1|0|0|0|1|1|1|0|1|0|1|0|1|0|1|1|1|1|1|1|1|1|1|1|0|0|0|1|0|0|1|0|1|1|0|0,12.0311,main_trials,9
85,,20560,55,0.8,all|most|many|some|few|none,all|most|many|some|few|none,right|wrong,12,,high,placeholder,Graduated High School,1571588724556,placeholder,4,female,English,59f226a9d6380600018b2923,Describe these results of <strong>Green Valley</strong> so as to make it appear as if there is a <strong>high</strong> success rate without lying.,many|most|right,5,In this exam,of the students got,of the questions,.,Sun Oct 20 2019 09:13:22 GMT-0700 (Pacific Daylight Time),1571588002690,0|0|1|0|0|0|1|0|0|0|0|0|1|0|1|0|1|0|1|0|0|0|0|1|0|1|1|1|0|0|1|0|0|1|0|0|0|1|0|1|1|0|0|0|0|0|0|1|0|0|0|1|0|0|0|0|1|0|0|1,12.0311,main_trials,10
85,,27791,55,0.7,all|most|many|some|few|none,all|most|many|some|few|none,right|wrong,12,,low,placeholder,Graduated High School,1571588724556,placeholder,4,female,English,59f226a9d6380600018b2923,Describe these results of <strong>Riverside</strong> so as to make it appear as if there is a <strong>low</strong> success rate without lying.,none|all|right,5,In this exam,of the students got,of the questions,.,Sun Oct 20 2019 09:13:22 GMT-0700 (Pacific Daylight Time),1571588002690,0|1|1|0|0|0|1|0|1|1|0|1|0|1|0|0|0|0|0|0|0|1|1|0|1|0|0|0|0|0|0|0|0|1|0|1|1|0|1|0|0|1|0|1|0|0|1|1|0|0|1|0|0|1|1|0|0|0|1|0,12.0311,main_trials,11
85,,24183,55,0.2,all|most|many|some|few|none,all|most|many|some|few|none,right|wrong,12,,high,placeholder,Graduated High School,1571588724556,placeholder,4,female,English,59f226a9d6380600018b2923,Describe these results of <strong>Green Valley</strong> so as to make it appear as if there is a <strong>high</strong> success rate without lying.,few|all|wrong,5,In this exam,of the students got,of the questions,.,Sun Oct 20 2019 09:13:22 GMT-0700 (Pacific Daylight Time),1571588002690,0|1|1|0|1|0|0|0|1|1|1|1|1|1|1|1|0|0|1|0|1|1|1|1|1|1|1|1|1|1|1|1|1|1|1|1|1|1|0|1|1|1|1|1|1|1|1|1|1|1|1|1|0|1|1|0|1|0|1|1,12.0311,main_trials,12
85,,16109,55,0.3,all|most|many|some|few|none,all|most|many|some|few|none,right|wrong,12,,high,placeholder,Graduated High School,1571588724556,placeholder,4,female,English,59f226a9d6380600018b2923,Describe these results of <strong>Green Valley</strong> so as to make it appear as if there is a <strong>high</strong> success rate without lying.,none|all|wrong,5,In this exam,of the students got,of the questions,.,Sun Oct 20 2019 09:13:22 GMT-0700 (Pacific Daylight Time),1571588002690,0|1|1|1|1|1|0|0|1|0|1|1|0|1|0|1|1|1|1|0|1|1|0|1|1|1|1|0|0|1|1|1|0|1|1|1|1|0|1|1|0|1|0|1|1|1|1|0|1|1|1|0|1|0|1|1|1|1|1|0,12.0311,main_trials,13
85,,23004,55,0.5,all|most|many|some|few|none,all|most|many|some|few|none,right|wrong,12,,high,placeholder,Graduated High School,1571588724556,placeholder,4,female,English,59f226a9d6380600018b2923,Describe these results of <strong>Green Valley</strong> so as to make it appear as if there is a <strong>high</strong> success rate without lying.,some|many|right,5,In this exam,of the students got,of the questions,.,Sun Oct 20 2019 09:13:22 GMT-0700 (Pacific Daylight Time),1571588002690,0|0|1|0|1|1|1|1|0|0|1|0|1|1|1|0|0|0|1|1|1|1|1|1|0|1|1|0|1|1|0|1|1|1|0|0|1|0|0|1|0|0|0|0|1|1|1|1|0|1|1|0|0|0|1|0|1|1|0|1,12.0311,main_trials,14
84,,46703,,0.5,all|most|many|some|few|none,all|most|many|some|few|none,right|wrong,12,,low,NA,Higher Degree,1571588603350,NA,4,female,english,5cb7c228e4ec6b0017df1757,Describe these results of <strong>Riverside</strong> so as to make it appear as if there is a <strong>low</strong> success rate without lying.,all|some|wrong,5,In this exam,of the students got,of the questions,.,Sun Oct 20 2019 17:13:28 GMT+0100 (British Summer Time),1571588008029,1|0|0|0|0|0|1|0|0|0|1|1|1|1|0|1|1|0|0|1|0|1|0|1|0|0|1|0|0|1|1|1|0|0|1|0|0|1|1|0|0|1|0|0|1|0|1|1|0|1|0|1|1|1|1|1|0|1|0|0,9.922016666666666,training_trials,1
84,,9547,,0.2,all|most|many|some|few|none,all|most|many|some|few|none,right|wrong,12,,high,NA,Higher Degree,1571588603350,NA,4,female,english,5cb7c228e4ec6b0017df1757,Describe these results of <strong>Green Valley</strong> so as to make it appear as if there is a <strong>high</strong> success rate without lying.,all|some|right,5,In this exam,of the students got,of the questions,.,Sun Oct 20 2019 17:13:28 GMT+0100 (British Summer Time),1571588008029,1|1|1|1|1|1|1|1|1|0|0|1|1|1|1|1|1|1|1|1|0|1|0|0|1|1|1|1|1|0|1|0|1|0|1|1|1|1|1|1|1|1|0|1|0|1|1|1|1|1|1|1|0|1|1|1|0|1|1|0,9.922016666666666,training_trials,2
84,,19313,,0.9,all|most|many|some|few|none,all|most|many|some|few|none,right|wrong,12,,high,NA,Higher Degree,1571588603350,NA,4,female,english,5cb7c228e4ec6b0017df1757,Describe these results of <strong>Green Valley</strong> so as to make it appear as if there is a <strong>high</strong> success rate without lying.,most|most|right,5,In this exam,of the students got,of the questions,.,Sun Oct 20 2019 17:13:28 GMT+0100 (British Summer Time),1571588008029,0|0|0|0|0|1|1|0|0|0|0|0|0|0|0|0|0|0|0|0|0|0|0|0|1|1|0|0|0|0|0|0|0|0|0|0|0|0|0|0|0|0|0|0|0|0|0|0|0|0|0|0|0|0|0|0|0|0|0|0,9.922016666666666,training_trials,3
84,,20702,,0.6,all|most|many|some|few|none,all|most|many|some|few|none,right|wrong,12,,low,placeholder,Higher Degree,1571588603350,placeholder,4,female,english,5cb7c228e4ec6b0017df1757,Describe these results of <strong>Riverside</strong> so as to make it appear as if there is a <strong>low</strong> success rate without lying.,all|some|wrong,5,In this exam,of the students got,of the questions,.,Sun Oct 20 2019 17:13:28 GMT+0100 (British Summer Time),1571588008029,0|0|0|1|0|0|1|0|1|0|1|1|0|0|0|1|0|1|0|1|1|0|0|0|0|1|1|0|0|1|1|0|0|0|1|1|1|1|1|0|0|0|0|1|1|1|0|0|0|1|0|0|0|0|1|0|1|0|0|0,9.922016666666666,main_trials,1
84,,26495,,0.7,all|most|many|some|few|none,all|most|many|some|few|none,right|wrong,12,,low,placeholder,Higher Degree,1571588603350,placeholder,4,female,english,5cb7c228e4ec6b0017df1757,Describe these results of <strong>Riverside</strong> so as to make it appear as if there is a <strong>low</strong> success rate without lying.,some|many|wrong,5,In this exam,of the students got,of the questions,.,Sun Oct 20 2019 17:13:28 GMT+0100 (British Summer Time),1571588008029,0|0|1|0|0|1|0|1|0|0|0|0|0|0|1|0|0|0|0|0|0|0|0|0|0|0|0|0|0|0|1|0|0|1|1|0|0|0|0|0|0|0|1|0|0|0|0|1|0|0|0|1|1|0|0|1|0|0|0|1,9.922016666666666,main_trials,2
84,,50390,,0.8,all|most|many|some|few|none,all|most|many|some|few|none,right|wrong,12,,low,placeholder,Higher Degree,1571588603350,placeholder,4,female,english,5cb7c228e4ec6b0017df1757,Describe these results of <strong>Riverside</strong> so as to make it appear as if there is a <strong>low</strong> success rate without lying.,some|few|right,5,In this exam,of the students got,of the questions,.,Sun Oct 20 2019 17:13:28 GMT+0100 (British Summer Time),1571588008029,0|0|0|0|0|1|0|0|0|1|0|0|0|0|1|0|0|1|0|0|1|0|0|1|0|0|0|0|0|1|0|0|0|1|0|0|1|0|0|0|0|0|0|0|0|0|0|0|0|0|0|0|0|0|0|0|0|0|0|0,9.922016666666666,main_trials,3
84,,12886,,0.2,all|most|many|some|few|none,all|most|many|some|few|none,right|wrong,12,,low,placeholder,Higher Degree,1571588603350,placeholder,4,female,english,5cb7c228e4ec6b0017df1757,Describe these results of <strong>Riverside</strong> so as to make it appear as if there is a <strong>low</strong> success rate without lying.,some|none|right,5,In this exam,of the students got,of the questions,.,Sun Oct 20 2019 17:13:28 GMT+0100 (British Summer Time),1571588008029,1|1|1|1|1|1|1|1|1|0|0|1|1|1|1|1|1|1|1|1|1|1|1|1|1|1|1|1|1|1|1|1|0|1|1|1|1|0|1|1|1|0|0|1|1|0|1|1|1|1|1|1|1|1|1|1|1|1|1|1,9.922016666666666,main_trials,4
84,,10623,,0.4,all|most|many|some|few|none,all|most|many|some|few|none,right|wrong,12,,high,placeholder,Higher Degree,1571588603350,placeholder,4,female,english,5cb7c228e4ec6b0017df1757,Describe these results of <strong>Green Valley</strong> so as to make it appear as if there is a <strong>high</strong> success rate without lying.,most|many|right,5,In this exam,of the students got,of the questions,.,Sun Oct 20 2019 17:13:28 GMT+0100 (British Summer Time),1571588008029,1|1|0|1|0|1|1|1|0|1|1|0|0|1|1|1|1|0|1|0|1|1|0|1|1|0|0|0|0|0|1|1|1|0|1|0|0|1|1|0|0|0|1|1|1|1|0|1|1|1|1|1|1|0|0|0|0|1|0|0,9.922016666666666,main_trials,5
84,,18653,,0.7,all|most|many|some|few|none,all|most|many|some|few|none,right|wrong,12,,high,placeholder,Higher Degree,1571588603350,placeholder,4,female,english,5cb7c228e4ec6b0017df1757,Describe these results of <strong>Green Valley</strong> so as to make it appear as if there is a <strong>high</strong> success rate without lying.,most|many|right,5,In this exam,of the students got,of the questions,.,Sun Oct 20 2019 17:13:28 GMT+0100 (British Summer Time),1571588008029,1|0|0|0|0|0|0|0|0|0|1|0|0|1|0|0|1|0|0|0|0|0|0|0|1|0|1|0|1|0|1|0|0|0|0|0|0|1|0|0|0|0|0|1|0|0|0|1|1|0|0|1|1|0|1|0|0|0|0|0,9.922016666666666,main_trials,6
84,,22926,,0.3,all|most|many|some|few|none,all|most|many|some|few|none,right|wrong,12,,low,placeholder,Higher Degree,1571588603350,placeholder,4,female,english,5cb7c228e4ec6b0017df1757,Describe these results of <strong>Riverside</strong> so as to make it appear as if there is a <strong>low</strong> success rate without lying.,some|few|right,5,In this exam,of the students got,of the questions,.,Sun Oct 20 2019 17:13:28 GMT+0100 (British Summer Time),1571588008029,1|1|0|1|1|1|1|1|0|1|0|0|1|1|1|1|1|0|0|0|0|1|1|1|1|1|1|1|1|0|0|0|0|0|0|0|1|1|1|1|1|1|1|1|1|1|1|1|0|0|1|0|1|1|1|1|0|1|1|1,9.922016666666666,main_trials,7
84,,149981,,0.5,all|most|many|some|few|none,all|most|many|some|few|none,right|wrong,12,,high,placeholder,Higher Degree,1571588603350,placeholder,4,female,english,5cb7c228e4ec6b0017df1757,Describe these results of <strong>Green Valley</strong> so as to make it appear as if there is a <strong>high</strong> success rate without lying.,few|some|wrong,5,In this exam,of the students got,of the questions,.,Sun Oct 20 2019 17:13:28 GMT+0100 (British Summer Time),1571588008029,1|0|1|1|0|1|1|0|0|0|1|1|1|1|1|0|1|0|1|1|0|0|0|0|1|0|0|1|1|0|0|1|0|1|0|0|1|1|1|1|1|0|1|0|1|1|1|1|0|1|1|1|1|1|0|1|0|1|1|1,9.922016666666666,main_trials,8
84,,7766,,0.6,all|most|many|some|few|none,all|most|many|some|few|none,right|wrong,12,,high,placeholder,Higher Degree,1571588603350,placeholder,4,female,english,5cb7c228e4ec6b0017df1757,Describe these results of <strong>Green Valley</strong> so as to make it appear as if there is a <strong>high</strong> success rate without lying.,most|few|wrong,5,In this exam,of the students got,of the questions,.,Sun Oct 20 2019 17:13:28 GMT+0100 (British Summer Time),1571588008029,1|0|1|0|0|1|1|0|1|1|0|1|0|0|1|0|0|0|0|1|1|1|0|0|0|0|1|1|0|0|0|1|1|1|0|0|1|0|1|1|0|1|0|1|1|1|0|0|1|1|0|0|0|1|0|0|1|1|1|0,9.922016666666666,main_trials,9
84,,80157,,0.4,all|most|many|some|few|none,all|most|many|some|few|none,right|wrong,12,,low,placeholder,Higher Degree,1571588603350,placeholder,4,female,english,5cb7c228e4ec6b0017df1757,Describe these results of <strong>Riverside</strong> so as to make it appear as if there is a <strong>low</strong> success rate without lying.,some|few|right,5,In this exam,of the students got,of the questions,.,Sun Oct 20 2019 17:13:28 GMT+0100 (British Summer Time),1571588008029,0|1|0|1|1|0|0|1|1|1|1|1|1|0|0|0|1|1|1|1|1|1|0|0|1|1|0|0|1|1|0|0|1|1|1|1|1|1|1|0|0|1|1|1|0|1|1|0|0|0|1|0|0|0|0|0|0|0|0|1,9.922016666666666,main_trials,10
84,,9578,,0.5,all|most|many|some|few|none,all|most|many|some|few|none,right|wrong,12,,low,placeholder,Higher Degree,1571588603350,placeholder,4,female,english,5cb7c228e4ec6b0017df1757,Describe these results of <strong>Riverside</strong> so as to make it appear as if there is a <strong>low</strong> success rate without lying.,most|most|wrong,5,In this exam,of the students got,of the questions,.,Sun Oct 20 2019 17:13:28 GMT+0100 (British Summer Time),1571588008029,0|1|0|0|1|0|1|1|1|1|0|0|1|0|0|1|1|1|1|1|1|0|0|0|1|1|1|1|0|1|0|1|1|1|0|0|1|0|1|1|0|0|1|1|0|1|0|1|0|0|1|0|0|1|0|1|0|1|0|1,9.922016666666666,main_trials,11
84,,12616,,0.2,all|most|many|some|few|none,all|most|many|some|few|none,right|wrong,12,,high,placeholder,Higher Degree,1571588603350,placeholder,4,female,english,5cb7c228e4ec6b0017df1757,Describe these results of <strong>Green Valley</strong> so as to make it appear as if there is a <strong>high</strong> success rate without lying.,many|many|right,5,In this exam,of the students got,of the questions,.,Sun Oct 20 2019 17:13:28 GMT+0100 (British Summer Time),1571588008029,0|1|0|1|1|0|1|1|1|0|1|1|1|1|1|1|0|1|1|1|1|1|1|1|1|1|0|1|1|1|1|1|1|1|1|0|1|1|1|0|1|1|1|1|1|1|0|1|0|1|1|0|1|1|1|1|1|0|0|1,9.922016666666666,main_trials,12
84,,19768,,0.8,all|most|many|some|few|none,all|most|many|some|few|none,right|wrong,12,,high,placeholder,Higher Degree,1571588603350,placeholder,4,female,english,5cb7c228e4ec6b0017df1757,Describe these results of <strong>Green Valley</strong> so as to make it appear as if there is a <strong>high</strong> success rate without lying.,most|few|wrong,5,In this exam,of the students got,of the questions,.,Sun Oct 20 2019 17:13:28 GMT+0100 (British Summer Time),1571588008029,1|0|0|0|0|0|0|0|1|0|1|0|0|0|0|1|0|0|0|1|1|0|0|0|1|0|0|0|0|0|0|1|0|0|0|0|1|0|0|0|0|0|0|0|0|0|0|0|0|0|1|0|1|0|0|0|0|0|1|0,9.922016666666666,main_trials,13
84,,23131,,0.3,all|most|many|some|few|none,all|most|many|some|few|none,right|wrong,12,,high,placeholder,Higher Degree,1571588603350,placeholder,4,female,english,5cb7c228e4ec6b0017df1757,Describe these results of <strong>Green Valley</strong> so as to make it appear as if there is a <strong>high</strong> success rate without lying.,some|few|wrong,5,In this exam,of the students got,of the questions,.,Sun Oct 20 2019 17:13:28 GMT+0100 (British Summer Time),1571588008029,0|0|1|1|1|1|1|1|1|1|1|1|1|1|0|1|0|1|1|1|0|0|1|1|0|0|1|0|0|1|1|1|0|0|0|1|0|1|1|1|1|0|1|0|1|1|1|1|1|1|1|0|0|0|0|1|1|1|0|1,9.922016666666666,main_trials,14
83,,29173,25,0.9,all|most|many|some|few|none,all|most|many|some|few|none,right|wrong,12,,high,NA,Graduated High School,1571588602356,NA,4,male,English,5685850c333cbd000d4e042f,Describe these results of <strong>Green Valley</strong> so as to make it appear as if there is a <strong>high</strong> success rate without lying.,most|all|right,5,In this exam,of the students got,of the questions,.,Sun Oct 20 2019 12:13:23 GMT-0400 (Eastern Daylight Time),1571588003526,0|0|0|0|0|0|0|0|0|0|0|0|0|0|0|0|0|0|0|0|0|0|0|0|0|0|0|0|0|0|0|0|0|0|0|0|0|0|0|1|0|0|0|0|0|0|0|0|0|0|0|0|0|0|1|1|0|0|0|0,9.9805,training_trials,1
83,,29902,25,0.5,all|most|many|some|few|none,all|most|many|some|few|none,right|wrong,12,,low,NA,Graduated High School,1571588602356,NA,4,male,English,5685850c333cbd000d4e042f,Describe these results of <strong>Riverside</strong> so as to make it appear as if there is a <strong>low</strong> success rate without lying.,many|many|wrong,5,In this exam,of the students got,of the questions,.,Sun Oct 20 2019 12:13:23 GMT-0400 (Eastern Daylight Time),1571588003526,0|0|0|1|0|0|0|0|0|1|0|0|0|0|1|1|0|1|1|0|1|0|0|0|0|0|1|0|0|0|0|1|1|1|0|1|0|0|1|0|1|0|0|0|0|0|1|1|1|0|0|1|1|1|0|0|0|0|0|1,9.9805,training_trials,2
83,,98108,25,0.2,all|most|many|some|few|none,all|most|many|some|few|none,right|wrong,12,,high,NA,Graduated High School,1571588602356,NA,4,male,English,5685850c333cbd000d4e042f,Describe these results of <strong>Green Valley</strong> so as to make it appear as if there is a <strong>high</strong> success rate without lying.,none|all|wrong,5,In this exam,of the students got,of the questions,.,Sun Oct 20 2019 12:13:23 GMT-0400 (Eastern Daylight Time),1571588003526,1|1|1|1|0|1|1|0|0|1|1|0|1|1|1|1|1|1|1|1|1|0|0|1|1|1|0|1|1|1|1|0|1|1|1|1|1|1|1|1|1|1|1|0|1|1|1|1|0|0|0|1|1|1|0|1|1|1|0|1,9.9805,training_trials,3
83,,36693,25,0.8,all|most|many|some|few|none,all|most|many|some|few|none,right|wrong,12,,low,placeholder,Graduated High School,1571588602356,placeholder,4,male,English,5685850c333cbd000d4e042f,Describe these results of <strong>Riverside</strong> so as to make it appear as if there is a <strong>low</strong> success rate without lying.,few|most|right,5,In this exam,of the students got,of the questions,.,Sun Oct 20 2019 12:13:23 GMT-0400 (Eastern Daylight Time),1571588003526,0|0|0|1|0|0|1|0|1|0|1|0|0|0|1|1|0|0|0|1|0|0|1|0|0|0|0|0|0|0|0|0|0|0|0|0|0|0|0|1|1|0|0|1|1|0|0|0|0|0|1|0|0|0|0|0|1|1|0|0,9.9805,main_trials,1
83,,16211,25,0.4,all|most|many|some|few|none,all|most|many|some|few|none,right|wrong,12,,low,placeholder,Graduated High School,1571588602356,placeholder,4,male,English,5685850c333cbd000d4e042f,Describe these results of <strong>Riverside</strong> so as to make it appear as if there is a <strong>low</strong> success rate without lying.,most|most|wrong,5,In this exam,of the students got,of the questions,.,Sun Oct 20 2019 12:13:23 GMT-0400 (Eastern Daylight Time),1571588003526,0|0|1|1|0|1|0|1|0|1|1|1|1|0|1|1|1|0|1|0|1|0|0|0|1|1|1|1|1|1|0|1|1|1|1|1|1|1|0|0|1|1|0|0|0|0|1|1|1|0|0|0|1|0|1|0|1|1|1|1,9.9805,main_trials,2
83,,37067,25,0.2,all|most|many|some|few|none,all|most|many|some|few|none,right|wrong,12,,high,placeholder,Graduated High School,1571588602356,placeholder,4,male,English,5685850c333cbd000d4e042f,Describe these results of <strong>Green Valley</strong> so as to make it appear as if there is a <strong>high</strong> success rate without lying.,most|some|wrong,5,In this exam,of the students got,of the questions,.,Sun Oct 20 2019 12:13:23 GMT-0400 (Eastern Daylight Time),1571588003526,1|0|1|0|1|1|0|1|1|1|1|1|1|1|0|1|1|0|1|1|1|1|1|1|1|1|1|1|1|1|1|1|1|0|1|1|1|1|1|0|1|1|1|0|1|1|0|0|1|1|1|1|0|1|1|1|1|1|1|1,9.9805,main_trials,3
83,,25677,25,0.5,all|most|many|some|few|none,all|most|many|some|few|none,right|wrong,12,,low,placeholder,Graduated High School,1571588602356,placeholder,4,male,English,5685850c333cbd000d4e042f,Describe these results of <strong>Riverside</strong> so as to make it appear as if there is a <strong>low</strong> success rate without lying.,most|many|wrong,5,In this exam,of the students got,of the questions,.,Sun Oct 20 2019 12:13:23 GMT-0400 (Eastern Daylight Time),1571588003526,0|1|1|0|0|1|0|1|0|0|0|1|0|1|1|0|0|0|1|0|0|0|1|0|1|0|0|0|0|0|0|0|0|0|0|0|0|0|1|0|1|0|1|0|0|0|1|1|0|1|0|1|1|1|0|1|1|0|1|0,9.9805,main_trials,4
83,,24283,25,0.3,all|most|many|some|few|none,all|most|many|some|few|none,right|wrong,12,,high,placeholder,Graduated High School,1571588602356,placeholder,4,male,English,5685850c333cbd000d4e042f,Describe these results of <strong>Green Valley</strong> so as to make it appear as if there is a <strong>high</strong> success rate without lying.,all|some|right,5,In this exam,of the students got,of the questions,.,Sun Oct 20 2019 12:13:23 GMT-0400 (Eastern Daylight Time),1571588003526,0|1|1|1|1|1|0|1|0|1|1|1|1|1|1|1|0|0|1|1|1|0|1|1|1|0|0|0|0|0|1|1|0|1|0|1|0|1|0|1|1|1|0|1|1|1|1|0|0|0|1|1|1|1|1|0|1|1|1|0,9.9805,main_trials,5
83,,12921,25,0.6,all|most|many|some|few|none,all|most|many|some|few|none,right|wrong,12,,high,placeholder,Graduated High School,1571588602356,placeholder,4,male,English,5685850c333cbd000d4e042f,Describe these results of <strong>Green Valley</strong> so as to make it appear as if there is a <strong>high</strong> success rate without lying.,most|most|right,5,In this exam,of the students got,of the questions,.,Sun Oct 20 2019 12:13:23 GMT-0400 (Eastern Daylight Time),1571588003526,1|0|1|0|0|0|0|0|1|1|0|1|1|1|0|0|0|0|0|1|0|1|1|0|0|1|0|0|0|0|0|0|0|0|1|0|0|0|1|1|1|0|0|0|0|0|1|0|0|0|0|0|1|0|1|0|0|0|1|1,9.9805,main_trials,6
83,,19252,25,0.7,all|most|many|some|few|none,all|most|many|some|few|none,right|wrong,12,,high,placeholder,Graduated High School,1571588602356,placeholder,4,male,English,5685850c333cbd000d4e042f,Describe these results of <strong>Green Valley</strong> so as to make it appear as if there is a <strong>high</strong> success rate without lying.,some|many|right,5,In this exam,of the students got,of the questions,.,Sun Oct 20 2019 12:13:23 GMT-0400 (Eastern Daylight Time),1571588003526,0|0|1|1|1|1|0|0|0|0|0|1|0|1|0|0|0|0|0|0|0|0|1|0|0|1|0|0|0|0|1|0|1|1|0|1|0|0|0|0|1|1|0|0|1|0|0|0|0|1|1|1|0|0|0|0|0|0|1|1,9.9805,main_trials,7
83,,18347,25,0.4,all|most|many|some|few|none,all|most|many|some|few|none,right|wrong,12,,high,placeholder,Graduated High School,1571588602356,placeholder,4,male,English,5685850c333cbd000d4e042f,Describe these results of <strong>Green Valley</strong> so as to make it appear as if there is a <strong>high</strong> success rate without lying.,few|most|wrong,5,In this exam,of the students got,of the questions,.,Sun Oct 20 2019 12:13:23 GMT-0400 (Eastern Daylight Time),1571588003526,1|1|0|0|0|1|1|0|0|0|1|0|1|0|1|0|1|1|0|1|1|1|0|0|0|1|0|1|0|1|1|0|0|0|1|1|0|1|1|0|1|1|1|1|1|1|0|1|1|0|1|0|1|0|0|1|0|0|1|0,9.9805,main_trials,8
83,,18961,25,0.2,all|most|many|some|few|none,all|most|many|some|few|none,right|wrong,12,,low,placeholder,Graduated High School,1571588602356,placeholder,4,male,English,5685850c333cbd000d4e042f,Describe these results of <strong>Riverside</strong> so as to make it appear as if there is a <strong>low</strong> success rate without lying.,all|most|wrong,5,In this exam,of the students got,of the questions,.,Sun Oct 20 2019 12:13:23 GMT-0400 (Eastern Daylight Time),1571588003526,1|1|1|1|1|1|1|1|1|1|1|1|1|1|1|1|1|1|0|1|0|0|0|1|0|0|0|1|1|1|1|1|0|1|1|1|1|1|0|1|1|1|1|0|1|1|1|1|1|0|0|0|1|0|0|1|0|1|1|1,9.9805,main_trials,9
83,,31148,25,0.8,all|most|many|some|few|none,all|most|many|some|few|none,right|wrong,12,,high,placeholder,Graduated High School,1571588602356,placeholder,4,male,English,5685850c333cbd000d4e042f,Describe these results of <strong>Green Valley</strong> so as to make it appear as if there is a <strong>high</strong> success rate without lying.,many|most|right,5,In this exam,of the students got,of the questions,.,Sun Oct 20 2019 12:13:23 GMT-0400 (Eastern Daylight Time),1571588003526,0|0|0|0|0|0|0|0|0|0|0|0|1|0|0|0|0|0|0|0|0|1|0|1|0|0|0|0|0|0|0|0|1|0|0|0|0|0|0|0|0|0|0|0|0|0|0|0|0|0|0|0|0|0|1|1|0|0|1|0,9.9805,main_trials,10
83,,22841,25,0.7,all|most|many|some|few|none,all|most|many|some|few|none,right|wrong,12,,low,placeholder,Graduated High School,1571588602356,placeholder,4,male,English,5685850c333cbd000d4e042f,Describe these results of <strong>Riverside</strong> so as to make it appear as if there is a <strong>low</strong> success rate without lying.,some|many|wrong,5,In this exam,of the students got,of the questions,.,Sun Oct 20 2019 12:13:23 GMT-0400 (Eastern Daylight Time),1571588003526,0|1|1|0|1|1|0|1|1|0|0|0|0|0|0|0|0|1|1|0|0|0|1|1|0|0|0|1|0|0|0|1|0|0|0|0|0|0|0|1|0|0|0|0|1|0|0|0|0|1|0|0|0|1|0|0|0|0|1|0,9.9805,main_trials,11
83,,33409,25,0.5,all|most|many|some|few|none,all|most|many|some|few|none,right|wrong,12,,high,placeholder,Graduated High School,1571588602356,placeholder,4,male,English,5685850c333cbd000d4e042f,Describe these results of <strong>Green Valley</strong> so as to make it appear as if there is a <strong>high</strong> success rate without lying.,few|many|wrong,5,In this exam,of the students got,of the questions,.,Sun Oct 20 2019 12:13:23 GMT-0400 (Eastern Daylight Time),1571588003526,0|0|0|0|1|1|0|0|1|1|0|1|0|1|0|0|0|1|1|1|0|1|1|0|1|1|1|1|0|1|1|1|1|1|0|0|1|0|1|1|0|1|1|0|1|0|1|0|0|0|1|1|0|0|0|0|1|1|0|1,9.9805,main_trials,12
83,,19804,25,0.3,all|most|many|some|few|none,all|most|many|some|few|none,right|wrong,12,,low,placeholder,Graduated High School,1571588602356,placeholder,4,male,English,5685850c333cbd000d4e042f,Describe these results of <strong>Riverside</strong> so as to make it appear as if there is a <strong>low</strong> success rate without lying.,all|most|wrong,5,In this exam,of the students got,of the questions,.,Sun Oct 20 2019 12:13:23 GMT-0400 (Eastern Daylight Time),1571588003526,1|0|1|1|1|1|1|1|1|1|1|0|1|1|1|1|1|0|1|1|1|1|0|1|0|1|1|0|0|1|1|1|1|1|1|1|1|1|0|0|0|1|1|1|1|1|0|0|0|1|1|1|0|0|1|1|0|0|1|0,9.9805,main_trials,13
83,,20932,25,0.6,all|most|many|some|few|none,all|most|many|some|few|none,right|wrong,12,,low,placeholder,Graduated High School,1571588602356,placeholder,4,male,English,5685850c333cbd000d4e042f,Describe these results of <strong>Riverside</strong> so as to make it appear as if there is a <strong>low</strong> success rate without lying.,some|many|wrong,5,In this exam,of the students got,of the questions,.,Sun Oct 20 2019 12:13:23 GMT-0400 (Eastern Daylight Time),1571588003526,0|1|0|0|0|0|1|0|0|0|1|0|1|1|1|1|0|0|0|0|1|0|0|0|1|0|1|1|0|0|0|0|0|0|1|0|0|1|0|0|0|0|0|1|0|0|0|0|1|0|0|1|0|0|0|0|1|1|0|1,9.9805,main_trials,14
82,,49356,31,0.2,all|most|many|some|few|none,all|most|many|some|few|none,right|wrong,12,,high,NA,Higher Degree,1571588594562,NA,4,male,"english, gujarati",55d24bb75bc5bc0005d9050d,Describe these results of <strong>Green Valley</strong> so as to make it appear as if there is a <strong>high</strong> success rate without lying.,all|some|right,5,In this exam,of the students got,of the questions,.,Sun Oct 20 2019 17:15:10 GMT+0100 (British Summer Time),1571588110798,1|0|1|0|1|1|1|1|1|1|1|1|1|1|1|1|1|0|1|1|1|1|1|0|0|1|1|1|1|1|1|1|1|0|0|1|1|1|1|1|1|0|1|1|1|1|1|1|1|1|1|1|1|1|0|1|1|1|1|1,8.062733333333334,training_trials,1
82,,16541,31,0.9,all|most|many|some|few|none,all|most|many|some|few|none,right|wrong,12,,high,NA,Higher Degree,1571588594562,NA,4,male,"english, gujarati",55d24bb75bc5bc0005d9050d,Describe these results of <strong>Green Valley</strong> so as to make it appear as if there is a <strong>high</strong> success rate without lying.,all|most|right,5,In this exam,of the students got,of the questions,.,Sun Oct 20 2019 17:15:10 GMT+0100 (British Summer Time),1571588110798,0|0|0|0|0|0|0|0|0|0|1|0|0|0|1|0|0|0|1|0|0|1|0|0|0|0|0|0|1|0|0|0|0|0|0|0|0|0|0|0|0|0|0|0|0|0|0|0|0|0|0|0|1|0|0|0|0|0|0|0,8.062733333333334,training_trials,2
82,,17503,31,0.5,all|most|many|some|few|none,all|most|many|some|few|none,right|wrong,12,,low,NA,Higher Degree,1571588594562,NA,4,male,"english, gujarati",55d24bb75bc5bc0005d9050d,Describe these results of <strong>Riverside</strong> so as to make it appear as if there is a <strong>low</strong> success rate without lying.,none|all|right,5,In this exam,of the students got,of the questions,.,Sun Oct 20 2019 17:15:10 GMT+0100 (British Summer Time),1571588110798,0|0|0|0|0|1|0|1|1|1|0|0|1|1|1|1|0|1|0|0|0|1|0|0|1|1|0|1|0|1|0|1|1|1|0|0|1|1|0|0|1|1|1|1|1|1|1|1|0|1|0|0|0|1|1|0|1|0|1|0,8.062733333333334,training_trials,3
82,,11818,31,0.8,all|most|many|some|few|none,all|most|many|some|few|none,right|wrong,12,,high,placeholder,Higher Degree,1571588594562,placeholder,4,male,"english, gujarati",55d24bb75bc5bc0005d9050d,Describe these results of <strong>Green Valley</strong> so as to make it appear as if there is a <strong>high</strong> success rate without lying.,all|most|right,5,In this exam,of the students got,of the questions,.,Sun Oct 20 2019 17:15:10 GMT+0100 (British Summer Time),1571588110798,0|1|0|0|0|0|0|0|0|0|0|0|1|0|0|0|0|0|0|0|0|0|0|0|0|0|1|1|0|0|1|1|0|0|0|0|1|0|0|1|0|0|0|0|0|0|0|0|0|0|0|0|0|1|0|0|0|1|1|1,8.062733333333334,main_trials,1
82,,20380,31,0.5,all|most|many|some|few|none,all|most|many|some|few|none,right|wrong,12,,high,placeholder,Higher Degree,1571588594562,placeholder,4,male,"english, gujarati",55d24bb75bc5bc0005d9050d,Describe these results of <strong>Green Valley</strong> so as to make it appear as if there is a <strong>high</strong> success rate without lying.,most|most|right,5,In this exam,of the students got,of the questions,.,Sun Oct 20 2019 17:15:10 GMT+0100 (British Summer Time),1571588110798,0|0|0|0|0|0|0|0|1|0|0|1|0|1|1|1|0|1|0|0|1|1|1|1|1|0|0|1|1|0|0|1|1|0|1|0|0|0|1|0|1|0|0|0|0|1|0|1|1|0|0|1|0|0|1|1|1|1|0|1,8.062733333333334,main_trials,2
82,,16762,31,0.8,all|most|many|some|few|none,all|most|many|some|few|none,right|wrong,12,,low,placeholder,Higher Degree,1571588594562,placeholder,4,male,"english, gujarati",55d24bb75bc5bc0005d9050d,Describe these results of <strong>Riverside</strong> so as to make it appear as if there is a <strong>low</strong> success rate without lying.,none|all|right,5,In this exam,of the students got,of the questions,.,Sun Oct 20 2019 17:15:10 GMT+0100 (British Summer Time),1571588110798,0|0|1|0|0|0|0|0|0|0|1|1|0|0|0|0|0|0|1|0|0|1|0|0|0|0|0|1|0|0|0|0|0|0|1|1|0|0|0|1|0|0|0|0|1|0|0|0|0|0|1|0|0|0|0|0|0|1|0|0,8.062733333333334,main_trials,3
82,,14989,31,0.5,all|most|many|some|few|none,all|most|many|some|few|none,right|wrong,12,,low,placeholder,Higher Degree,1571588594562,placeholder,4,male,"english, gujarati",55d24bb75bc5bc0005d9050d,Describe these results of <strong>Riverside</strong> so as to make it appear as if there is a <strong>low</strong> success rate without lying.,most|most|wrong,5,In this exam,of the students got,of the questions,.,Sun Oct 20 2019 17:15:10 GMT+0100 (British Summer Time),1571588110798,1|0|1|1|1|0|1|0|1|0|1|0|1|1|1|1|0|1|1|0|1|0|0|0|1|0|1|0|1|0|1|1|1|1|1|0|1|1|1|1|0|0|1|0|1|0|0|1|0|1|1|0|0|0|1|0|0|0|0|1,8.062733333333334,main_trials,4
